timestamp,acc_x,acc_y,acc_z,accz_vert,accz_vert_lpf2,accz_vert_hpf0p1,takeoff,landing
2025-10-16T19:22:27.800361,-582,-169,786,10.229817058987575,2.0546448710072474,10.10286076633257,0,0
2025-10-16T19:22:28.014131,-605,-178,739,9.700021305383231,7.523881281294684,8.504373873369838,0,0
2025-10-16T19:22:28.231011,-642,-304,671,9.875791354635183,9.206355953045172,7.711134218192989,0,0
2025-10-16T19:22:28.449308,-651,-406,715,9.711410720847121,9.567654569138382,6.704270150326985,0,0
2025-10-16T19:22:28.649691,-594,-417,478,9.607585477148527,9.596219752011912,5.863602842131988,0,0
2025-10-16T19:22:28.879631,-704,-473,601,9.624587885584736,9.616513328183096,5.224122638469482,0,0
2025-10-16T19:22:29.097422,-661,-467,536,9.593469995810484,9.600028929604633,4.6132825641913335,0,0
2025-10-16T19:22:29.350546,-624,-489,595,9.65489879185069,9.639280920791654,4.152848967873913,0,0
2025-10-16T19:22:29.580051,-722,-459,545,9.573270454927863,9.592059329224364,3.616729053918484,0,0
2025-10-16T19:22:29.800486,-735,-437,474,9.529700343273813,9.547449879395856,3.174268587290345,0,0
2025-10-16T19:22:30.052672,-723,-467,514,9.541454497882677,9.543160991968678,2.8303504186114297,0,0
2025-10-16T19:22:30.279685,-767,-439,498,9.525574641088348,9.530580328166916,2.500276544812115,0,0
2025-10-16T19:22:30.529697,-749,-479,492,9.513162025560318,9.518119880255801,2.2101307128460697,0,0
2025-10-16T19:22:30.747891,-745,-364,300,9.491842224526605,9.49932175923132,1.9444625422907156,0,0
2025-10-16T19:22:30.964491,-1362,-475,1395,9.562400558578977,9.544446138530452,1.7900735942232173,0,0
2025-10-16T19:22:31.197979,419,0,-259,9.877448623530965,9.782664535140984,1.8701159570891168,0,0
2025-10-16T19:22:31.414060,44,-26,-118,9.778112484592437,9.779408156489746,1.57309843826901,1,0
2025-10-16T19:22:31.631485,75,-31,-26,9.81472784888918,9.804674636084208,1.430013061432413,0,0
2025-10-16T19:22:31.847235,211,2,-233,9.819881407369083,9.815553031400388,1.2749514904669434,0,0
2025-10-16T19:22:32.066777,-1102,-985,-89,9.001774941670826,9.23340448757838,0.40584503371241337,0,1
2025-10-16T19:22:32.296531,-276,-725,723,9.63200173374377,9.518547095071975,0.9204097281725763,0,0
2025-10-16T19:22:32.530842,-834,-610,845,9.506243705989982,9.509745678409924,0.7059405896110686,0,0
2025-10-16T19:22:32.747469,-792,-420,485,9.493613484798274,9.498205268145503,0.6159125186638301,0,0
2025-10-16T19:22:32.948174,-890,-311,363,9.465322010105764,9.474681728957664,0.522021844325468,0,0
2025-10-16T19:22:33.531783,-801,159,732,9.779208919745358,9.692529890401993,0.7425919032503946,0,0
2025-10-16T19:22:33.765137,-830,-17,484,9.633274041158929,9.650140316653147,0.5300490914005314,0,0
2025-10-16T19:22:33.980794,-980,203,520,9.672586909413532,9.66619782846643,0.5058011167524538,0,0
2025-10-16T19:22:34.213216,-711,332,602,9.843230326977503,9.792840721065863,0.6009295055215501,0,0
2025-10-16T19:22:34.431789,-750,335,590,9.826663210227688,9.817036153533866,0.519126969788962,0,0
2025-10-16T19:22:34.663327,-782,303,523,9.783898174687835,9.793330395939885,0.4231831688711685,0,0
2025-10-16T19:22:34.883339,-753,319,572,9.81441870071748,9.808416235768814,0.4030543868693762,0,0
2025-10-16T19:22:35.083667,-752,329,556,9.813874138893567,9.812320629849333,0.35757555551330744,0,0
2025-10-16T19:22:35.313929,-921,283,390,9.686571603739376,9.7223641498693,0.20456644298145438,0,0
2025-10-16T19:22:35.515169,-606,265,-591,9.517455487690716,9.575779619259217,0.03149282218065267,0,0
2025-10-16T19:22:35.747016,-71,235,-2200,9.280658677075179,9.364660360935474,-0.18238483422214546,0,0
2025-10-16T19:22:35.949624,-767,597,-4131,8.635451933400427,8.843010012284113,-0.7352032168933846,0,0
2025-10-16T19:22:36.177075,-4560,496,-8328,6.167213939197432,6.928838560420959,-2.8458243733122033,0,0
2025-10-16T19:22:36.379039,-3233,702,-8150,6.933207440953172,6.931963905612798,-1.84764851190037,0,0
2025-10-16T19:22:36.598474,-4585,554,-8743,6.379571781917152,6.536801791411574,-2.1332163041508583,0,0
2025-10-16T19:22:36.814837,-6909,710,-11599,5.224966499218735,5.598360446378347,-2.9207849279542057,0,0
2025-10-16T19:22:37.047544,-3030,374,-10176,7.211550702230723,6.7523806518921194,-0.8299110292386469,0,0
2025-10-16T19:22:37.247937,-4147,195,-11740,6.700214356422699,6.7150626983524715,-1.1915169403850168,0,0
2025-10-16T19:22:37.480658,-4108,19,-8579,7.1398139991553595,7.018915006948146,-0.6679768509445402,0,0
2025-10-16T19:22:37.697979,-1294,-19,-2145,9.027861675767035,8.45604558668352,1.0838679607491049,0,0
2025-10-16T19:22:37.931610,-1,-46,-541,9.728200418561537,9.366100910414382,1.5850264104686431,0,0
2025-10-16T19:22:38.147717,1936,1931,-2773,11.138813665974718,10.634237964346495,2.6612207904833123,0,0
2025-10-16T19:22:38.380939,1274,-342,-468,10.189051671166851,10.315767172892556,1.5203997306964154,0,0
2025-10-16T19:22:38.597834,858,258,-1190,10.15738456129518,10.202465760785504,1.3225376395273403,0,0
2025-10-16T19:22:38.831160,524,236,-523,10.072948352876873,10.109813511523463,1.0998857157353341,0,0
2025-10-16T19:22:39.063717,3496,198,-3629,10.997463442986325,10.744807401806915,1.79840639330922,0,0
2025-10-16T19:22:39.297557,40,32,-2,9.83645773562452,10.095005641200384,0.5662443254309807,0,0
2025-10-16T19:22:39.546572,30,16,-106,9.814460832498527,9.894313641841094,0.4834902460962551,1,0
2025-10-16T19:22:39.764992,2,9,-68,9.803804875949716,9.829566818435831,0.4200493335325931,0,0
2025-10-16T19:22:39.998065,30,-21,-286,9.782809968624251,9.796118594190126,0.3545059008558136,0,0
2025-10-16T19:22:40.214404,-827,195,-653,9.44627765163692,9.545854550654193,0.015967099028234153,0,1
2025-10-16T19:22:40.447178,1902,1461,1190,11.332537253051942,10.823985218707048,1.689871220029017,0,0
2025-10-16T19:22:40.663937,835,1469,781,10.817382734068259,10.819262030817637,1.0435769534311385,0,0
2025-10-16T19:22:40.898078,357,2234,1500,10.962191636061437,10.921508899603923,1.0557201488672,0,0
2025-10-16T19:22:41.114806,316,-228,-630,9.795774393654344,10.116197584836868,-0.09833940006747592,0,0
2025-10-16T19:22:41.631165,23,2,-91,9.808156709006463,9.895835855311905,-0.07636124736564276,0,0
2025-10-16T19:22:41.864750,-4,32,-203,9.795088959590542,9.8237650298879,-0.07944557179331858,1,0
2025-10-16T19:22:42.092830,-357,-166,275,9.615317913496286,9.674649212194158,-0.23027891587232907,0,0
2025-10-16T19:22:42.333362,633,-970,582,9.762969345998323,9.737830364320466,-0.07340334677162602,0,1
2025-10-16T19:22:42.542366,1012,-359,-1584,9.904312393110159,9.85692581780541,0.060355237509579336,0,0
2025-10-16T19:22:42.764272,940,-162,-2550,9.834790470949057,9.841090960487362,-0.008143359869819225,0,0
2025-10-16T19:22:42.981861,314,-25,30,9.93802045862058,9.910430952438242,0.08447161197677718,0,0
2025-10-16T19:22:43.214984,60,-22,-311,9.79389715183187,9.827066724296404,-0.05299246523306111,1,0
2025-10-16T19:22:43.431914,63,-17,-121,9.817058860856402,9.819907446844853,-0.02650059342387833,0,0
2025-10-16T19:22:43.937400,157,1326,775,10.43059191778986,10.256769878977295,0.5214989701681799,0,1
2025-10-16T19:22:44.148457,-1760,1609,234,9.636436514440778,9.813004963938662,-0.24221837454011483,0,0
2025-10-16T19:22:44.410952,56,203,-371,9.884588151170641,9.864213086564677,0.005270901209096121,0,0
2025-10-16T19:22:44.631441,89,40,-92,9.853157877901536,9.85630457476506,-0.02323906502202919,1,0
2025-10-16T19:22:44.832303,339,-49,-114,9.92468597981042,9.905222253766333,0.04289828003097676,0,0
2025-10-16T19:22:45.347277,6,-207,-671,9.664973759342647,9.73335683621662,-0.19260987029561213,0,1
2025-10-16T19:22:45.582127,77,115,-1510,9.74741208488905,9.743411472303505,-0.09787252102730293,0,0
2025-10-16T19:22:45.799799,-338,-103,-1506,9.48481214975168,9.558418510515935,-0.32023103720703167,0,0
2025-10-16T19:22:46.031427,-269,-67,-1120,9.560337273395678,9.559791126749378,-0.2173881170970416,0,0
2025-10-16T19:22:46.247676,-192,114,-1073,9.67184031798267,9.639947221311438,-0.09406457002402592,0,0
2025-10-16T19:22:46.764989,-2658,536,-7764,8.351771682699164,8.71843124115095,-1.256266145554437,0,0
2025-10-16T19:22:46.965867,-5600,1051,-7634,7.614556523070118,7.928757658385599,-1.7709385976500436,0,0
2025-10-16T19:22:47.213559,-3625,-247,-10627,7.951846869765331,7.945274877210176,-1.2736026249494732,0,0
2025-10-16T19:22:47.447344,-5307,-327,-11701,7.436421256567022,7.581258693910853,-1.5893096920365395,0,0
2025-10-16T19:22:47.664700,-3661,358,-6987,8.48315980319187,8.22644738117802,-0.4820011007288182,0,0
2025-10-16T19:22:47.881940,-4033,296,-8706,8.468902562373222,8.399891385699933,-0.44085843652861123,0,0
2025-10-16T19:22:48.098938,-4129,200,-8873,8.583264804950776,8.531070352472087,-0.2900477222185648,0,0
2025-10-16T19:22:48.315112,-3800,390,-9456,9.125500681204434,8.956305136552073,0.22403507606997763,0,0
2025-10-16T19:22:48.516715,-5011,326,-10603,8.937801435801784,8.943068232556932,0.032279472518316206,0,0
2025-10-16T19:22:48.747067,-3390,316,-8812,9.736386344678683,9.510580419955316,0.7381106602802998,0,0
2025-10-16T19:22:48.965107,-2039,66,-5594,9.868008235319055,9.766271848443678,0.7726397734722088,0,0
2025-10-16T19:22:49.166899,-921,174,-2823,9.973830375419556,9.914752000172761,0.7803946318765405,0,0
2025-10-16T19:22:49.398599,-856,95,102,9.42805067678197,9.566582799915292,0.20842364549774817,0,0
2025-10-16T19:22:49.630593,-446,-36,-1102,9.791446831305935,9.727442707651948,0.5079845755893725,0,0
2025-10-16T19:22:49.849309,-428,-770,-865,9.511596221917213,9.573033638465368,0.20266618258681662,0,0
2025-10-16T19:22:50.064815,-188,107,90,9.739635975291488,9.6922151561355,0.38262398761762295,0,0
2025-10-16T19:22:50.298356,-106,1785,-440,10.43324077798025,10.222319114617695,0.9560837614578812,0,0
2025-10-16T19:22:50.531034,-448,4355,-1876,11.425176000206909,11.082801097617192,1.7305514720362198,0,0
2025-10-16T19:22:50.751056,-9,21,-133,9.833178827649284,10.188864785039492,0.1230867609237119,0,0
2025-10-16T19:22:50.965873,9,18,-80,9.831396006714257,9.933144053073086,0.10776214896743905,1,0
2025-10-16T19:22:51.199218,24,4,-126,9.841895443346207,9.86786797111819,0.10505942845447162,0,0
2025-10-16T19:22:51.431983,90,-11,-217,9.882053367638914,9.878015710449464,0.1290059828300564,0,0
2025-10-16T19:22:51.664995,-115,842,-1887,10.403314526907243,10.253796214903629,0.5776744320256485,0,1
2025-10-16T19:22:51.901073,387,104,-559,10.119328096142075,10.157602399273205,0.26090207906464885,0,0
2025-10-16T19:22:52.113907,766,788,-187,10.461648676854846,10.37510653213512,0.5358817704481206,0,0
2025-10-16T19:22:52.318085,718,1045,235,10.452210889071848,10.430264307552697,0.4676742972096578,0,0
2025-10-16T19:22:52.565572,1892,2582,-1426,11.836111871602489,11.435958762314046,1.644874281399376,0,0
2025-10-16T19:22:53.048836,25,1,-188,9.854262689174552,10.304468399808535,-0.2993566366130798,0,0
2025-10-16T19:22:53.297331,2,-13,-198,9.84130632798057,9.973138361471133,-0.2774478701787539,1,0
2025-10-16T19:22:53.565197,100,-21,-106,9.86152468433463,9.893293818547608,-0.22851364259218881,0,0
2025-10-16T19:22:53.781475,-508,1256,-1774,10.392744516557633,10.250583478009988,0.26891352006706787,0,1
2025-10-16T19:22:54.017304,-93,918,-1221,10.33856396832424,10.31352166099573,0.19076121106305158,0,0
2025-10-16T19:22:54.264173,-160,247,-67,9.841262693375466,9.975684019780315,-0.27231939895787916,0,0
2025-10-16T19:22:54.481957,449,1197,-684,10.571605078305515,10.401985220109514,0.4068914929675659,0,0
2025-10-16T19:22:54.682625,2743,2531,-4155,12.726684978697161,12.064994579006008,2.275965174480274,0,0
2025-10-16T19:22:54.918827,35,-34,77,9.794620912832954,10.44084821727033,-0.5828551527450958,0,0
2025-10-16T19:22:55.382518,3,-8,-48,9.814101798540221,9.992495626294769,-0.5004818614681025,1,0
2025-10-16T19:22:55.582528,41,9,-133,9.852387910514949,9.892267439091356,-0.41059842914968847,0,0
2025-10-16T19:22:55.782660,267,205,-141,10.024147909888141,9.986610141360991,-0.2121756511051888,0,0
2025-10-16T19:22:56.014505,2003,-361,-226,10.58018852612072,10.41123547435187,0.30547752694757796,0,1
2025-10-16T19:22:56.280629,630,62,-662,10.226391410532646,10.279004459601566,-0.04292542113313187,0,0
2025-10-16T19:22:56.530731,661,-355,-572,10.06819525122247,10.128198883448803,-0.17866933023214374,0,0
2025-10-16T19:22:56.749382,868,-241,-422,10.169209247204625,10.157536271421483,-0.06898626457099423,0,0
2025-10-16T19:22:56.982012,659,104,-834,10.284223371054644,10.2481638165757,0.04088952946409745,0,0
2025-10-16T19:22:57.499096,3639,-133,-7660,12.522362183011534,11.875046235863962,2.024608530045536,0,0
2025-10-16T19:22:57.698419,5980,-184,-7398,13.31930354945122,12.90721982424288,2.5075131285349013,0,0
2025-10-16T19:22:57.932817,10454,12,-10390,15.4768546906797,14.74544724094266,4.1442788323925015,0,0
2025-10-16T19:22:58.181228,13512,607,-10646,16.71464715621238,16.154144375501364,4.7812426291717305,0,0
2025-10-16T19:22:58.415261,8438,305,-6583,13.905985156586496,14.545889456760252,1.752371173361984,0,0
2025-10-16T19:22:58.648022,7530,-229,-5861,13.04813341382936,13.474446872600003,0.7946595645953446,0,0
2025-10-16T19:22:58.864154,7288,-180,-7119,12.876148606698704,13.04644510078845,0.5531623290919702,0,0
2025-10-16T19:22:59.099630,5722,-28,-5531,12.04823505759525,12.332360351632152,-0.24407930939938913,0,0
2025-10-16T19:22:59.315437,10046,59,-8850,13.474995194065116,13.149761579359598,1.0506520025614225,0,0
2025-10-16T19:22:59.515600,7127,367,-6385,12.37377664438552,12.594648944079507,-0.044921539925461995,0,0
2025-10-16T19:22:59.731277,10352,-58,-9136,12.909620428597815,12.81996859002712,0.43611803561534634,0,0
2025-10-16T19:22:59.931151,9946,15,-8752,12.571642738266727,12.64235678136432,0.08719055918969693,0,0
2025-10-16T19:23:00.148804,9380,1,-8224,12.05484231955732,12.22206936796274,-0.38165027190181783,0,0
2025-10-16T19:23:00.349625,7939,-351,-7243,11.242738568355103,11.521490173085311,-1.0604890400115263,0,0
2025-10-16T19:23:00.583237,8813,427,-7622,11.547322537748839,11.539969748367744,-0.6715194480307481,0,0
2025-10-16T19:23:00.806346,9355,343,-7751,11.3478616693049,11.402542309740042,-0.7737482444544443,0,0
2025-10-16T19:23:01.033179,6116,74,-5829,10.351185074588722,10.650437907809694,-1.5727830874426207,0,0
2025-10-16T19:23:01.249144,6922,203,-6544,10.200326844489823,10.32844410707107,-1.5312222541548746,0,0
2025-10-16T19:23:01.449907,11491,260,-10098,10.16625482414877,10.212419534686562,-1.3905523167824834,0,0
2025-10-16T19:23:01.665807,8645,543,-7625,9.889234212468265,9.981223994909186,-1.481413071561063,0,0
2025-10-16T19:23:01.868266,8800,108,-7916,9.357493953890831,9.535029215645045,-1.788414531934545,0,0
2025-10-16T19:23:02.066105,12505,355,-10278,9.232436322317708,9.319235700972389,-1.70191417374142,0,0
2025-10-16T19:23:02.282832,11132,-42,-9579,8.568790471298444,8.782393282644264,-2.1014802305964455,0,0
2025-10-16T19:23:02.543421,14155,259,-9261,8.91421645430766,8.876694995106622,-1.5600167598929622,0,0
2025-10-16T19:23:02.781716,5047,67,-4417,8.822459612151352,8.837896888338312,-1.467377506296331,0,0
2025-10-16T19:23:03.016674,11475,718,-9385,7.613374801110256,7.961916373558665,-2.3776748799219196,0,0
2025-10-16T19:23:03.232876,10038,461,-8224,7.562948587286921,7.676508694559626,-2.1570395141046874,0,0
2025-10-16T19:23:03.463793,11781,526,-9986,6.554444541181226,6.87382302237449,-2.8121574347059735,0,0
2025-10-16T19:23:03.689028,11718,264,-7256,7.350034022310517,7.214487810064841,-1.7914479631623172,0,0
2025-10-16T19:23:03.866518,11732,160,-7347,7.068579439870597,7.1137466448367555,-1.8649255687251203,0,0
2025-10-16T19:23:04.071378,6409,317,-4702,7.979351001152943,7.732969897361183,-0.8476368228230508,0,0
2025-10-16T19:23:04.265652,3730,91,-2998,8.515639084742391,8.28820618238434,-0.2774781090701587,0,0
2025-10-16T19:23:04.473096,3421,366,-2297,8.934835886865693,8.750782584485524,0.1258978967516476,0,0
2025-10-16T19:23:04.703224,255,86,-132,9.781033246671697,9.4877880781609,0.8635751967947422,0,0
2025-10-16T19:23:04.898920,1470,-1024,-6893,6.262955031663391,7.195206361792936,-2.36384589095756,0,0
2025-10-16T19:23:05.108379,-15999,6107,-15999,3.4081693782997524,4.486091809356049,-4.636048507062286,0,0
2025-10-16T19:25:10.336324,-31,-7,995,10.402075915428952,2.089242828510495,10.272981818582076,0,0
2025-10-16T19:25:10.557233,-24,-7,991,10.398688347973488,8.033531167277706,9.123145922781136,0,0
2025-10-16T19:25:10.760272,-20,0,1005,10.408096368856851,9.73221252987018,8.113039350759287,0,0
2025-10-16T19:25:10.974801,-17,4,990,10.398797219134469,10.20906403409071,7.199077448094588,0,0
2025-10-16T19:25:11.196807,-16,-11,1010,10.410835832596643,10.35340456152321,6.406101593398001,0,0
2025-10-16T19:25:11.411741,-28,-12,1003,10.406007439499351,10.391034831004703,5.686665711405777,0,0
2025-10-16T19:25:11.647363,-22,-12,991,10.39929513823391,10.396943967519553,5.045870608726715,0,0
2025-10-16T19:25:11.874738,-24,9,994,10.40099581179155,10.399842515996719,4.484084593592181,0,0
2025-10-16T19:25:12.093244,-38,0,1008,10.408744627009929,10.406210776617995,3.99038663527593,0,0
2025-10-16T19:25:12.344610,-39,-4,993,10.399649230890164,10.401516875001711,3.5368389488150602,0,0
2025-10-16T19:25:12.544815,-23,-2,1004,10.406963932707397,10.405413510646612,3.148501307530114,0,0
2025-10-16T19:25:12.740686,-52,-6,1037,10.42560097067215,10.419768783560162,2.8200736347309383,0,0
2025-10-16T19:25:12.975040,-28,14,996,10.401814063879586,10.406924601529834,2.484122667078044,0,0
2025-10-16T19:25:13.199780,-104,-13,936,10.362545189690056,10.37517711372663,2.1719220221324647,0,0
2025-10-16T19:25:13.402614,114,154,935,10.365711366739774,10.368405647531937,1.9322717675901724,0,0
2025-10-16T19:25:13.626770,513,215,861,10.327348280220784,10.339034634850462,1.6824817845105087,0,0
2025-10-16T19:25:13.842215,-88,124,141,9.887100784799479,10.015736875877268,1.1035572012399433,0,0
2025-10-16T19:25:14.078196,362,653,738,10.249037946426647,10.182632348004775,1.3018935894164565,0,0
2025-10-16T19:25:14.291378,972,277,1063,10.455968624994666,10.378167614475606,1.3403863514029009,0,0
2025-10-16T19:25:14.524547,1944,1046,3337,11.859542784382242,11.437891891768226,2.437637898259155,0,0
2025-10-16T19:25:14.748285,-30,6,-195,9.689248672478922,10.186973346994192,0.23749880616807525,0,0
2025-10-16T19:25:14.973751,35,6,-4,9.805251775985669,9.913903010605669,0.3140386491502719,1,0
2025-10-16T19:25:15.176189,18,8,-33,9.787419675375087,9.82342123141854,0.263139467785155,0,0
2025-10-16T19:25:15.382610,-49,35,-50,9.775370110919935,9.789047130935478,0.2230594288148557,0,0
2025-10-16T19:25:15.573202,1366,408,-6028,6.243226913598376,7.2876358389946745,-2.9551921622260395,0,1
2025-10-16T19:25:15.833727,978,-69,-2058,8.594181327174521,8.222293042205784,-0.5367835396594157,0,0
2025-10-16T19:25:16.023755,651,-353,-1487,8.9290508979778,8.720442360342883,-0.18037726379471042,0,0
2025-10-16T19:25:16.283520,368,-224,-1301,9.03639473657538,8.946463702109378,-0.06488032331373321,0,0
2025-10-16T19:25:16.508718,-658,-1003,-1463,8.926899088294219,8.93246785780406,-0.1549094730896929,0,0
2025-10-16T19:25:17.025110,-78,52,-51,9.773683243705824,9.534244089093505,0.6146371056878105,0,0
2025-10-16T19:25:17.251355,67,-16,-258,9.654996651237736,9.62062627251946,0.44058497268140484,1,0
2025-10-16T19:25:17.478428,17,-25,-186,9.696756947478175,9.675087509712673,0.42849855271101245,0,0
2025-10-16T19:25:17.692764,99,-29,-97,9.75363214965342,9.73127561350117,0.43118895300364457,0,0
2025-10-16T19:25:17.926103,-641,1115,184,9.872620920217738,9.8323891302198,0.4887585169222653,0,1
2025-10-16T19:25:18.144627,1416,-828,996,10.48082185574046,10.296255350867048,0.9745001517398643,0,0
2025-10-16T19:25:18.377561,395,-1437,-52,9.815521497151446,9.952355070878577,0.27468220878341737,0,0
2025-10-16T19:25:18.590832,-3105,-2311,162,9.797032983284428,9.841243051204543,0.22759345754700835,0,0
2025-10-16T19:25:18.791021,49,204,-108,9.743504454234714,9.771324258084785,0.15463315335414266,0,0
2025-10-16T19:25:19.342774,86,86,2,9.812009280902009,9.800428908464697,0.19822792438239437,1,0
2025-10-16T19:25:19.564398,236,65,-100,9.76027583256909,9.77170479441246,0.13014053420212793,0,0
2025-10-16T19:25:19.792740,-1267,-284,5312,12.903315790199485,12.011950389646234,2.9077782946792388,0,1
2025-10-16T19:25:20.010348,-1317,-1247,860,10.25610905856903,10.755882566035034,0.23148260144361982,0,0
2025-10-16T19:25:20.242956,-384,-1742,-171,9.693832178248423,9.99612865459581,-0.2938659895238654,0,0
2025-10-16T19:25:20.468427,-712,-864,-677,9.364010003069602,9.543932955113407,-0.5540626043984115,0,0
2025-10-16T19:25:20.693947,80,-183,1417,10.65517935817813,10.338879984943807,0.6548196825456577,0,0
2025-10-16T19:25:20.912464,-1059,-341,124,9.816729209150598,9.965351479298533,-0.16313084048074494,0,0
2025-10-16T19:25:21.435152,685,146,-2945,8.07614433442496,8.613878390693046,-1.6911940083138308,0,0
2025-10-16T19:25:21.662635,5825,572,-7881,5.189043712368471,6.16387077070374,-4.067195740062623,0,0
2025-10-16T19:25:21.883603,8753,702,-9408,4.101770327101271,4.688715829069919,-4.579048873298496,0,0
2025-10-16T19:25:22.110927,10643,-84,-9517,3.7706136552519998,4.031937463673598,-4.362053709601802,0,0
2025-10-16T19:25:22.334211,7114,133,-7078,5.142076406729583,4.826092255128987,-2.6567357033919805,0,0
2025-10-16T19:25:22.523492,9859,194,-9983,2.97171206583281,3.520576626062472,-4.3140369768458084,0,0
2025-10-16T19:25:22.763000,10874,433,-9621,2.7936836081011096,3.000582640894822,-3.990592758797264,0,0
2025-10-16T19:25:22.965371,9992,77,-10036,2.482785990636665,2.6301689252295675,-3.821292587462177,0,0
2025-10-16T19:25:23.167605,11644,393,-10137,1.9526618598614172,2.1455039330026784,-3.865645391681794,0,0
2025-10-16T19:25:23.393217,14856,417,-9985,1.1620949594623118,1.4420073543244878,-4.136415047112609,0,0
2025-10-16T19:25:23.619724,9752,305,-6752,3.817934246834322,3.141662823251896,-1.31529137135717,0,0
2025-10-16T19:25:23.843157,15999,210,-13889,-1.8383286302807116,-0.4208498684863309,-6.193283314033489,0,0
2025-10-16T19:25:24.060977,10316,606,-8818,2.2363994957081226,1.4800539128526766,-1.8820498311192848,0,0
2025-10-16T19:25:24.292214,6390,56,-5182,5.215613429250773,4.152343275612844,0.9746819555745801,0,0
2025-10-16T19:25:24.509415,2712,24,-2054,7.918864936853146,6.8467818799918,3.2673465823795422,0,0
2025-10-16T19:25:24.743746,-76,104,-3255,8.152531611676574,7.780869826681151,3.1101769010542957,0,0
2025-10-16T19:25:24.965069,635,829,293,9.76345213342072,9.199140258684638,4.194056712526014,0,0
2025-10-16T19:25:25.157409,572,796,-1529,8.841895405282251,8.946444193541195,2.919657125358521,0,0
2025-10-16T19:25:25.393563,47,-312,-338,9.615742155817001,9.42523667891197,3.281178788775944,0,0
2025-10-16T19:25:25.592701,-384,-973,-1986,8.892469822294968,9.04458279664083,2.2734478909667044,0,0
2025-10-16T19:25:25.846069,315,407,509,9.982913260499574,9.715831777232982,2.988362608487801,0,0
2025-10-16T19:25:26.062707,243,132,-333,9.56228788167907,9.60599181430258,2.2810873404314527,0,0
2025-10-16T19:25:26.296738,120,126,-135,9.700744806243438,9.673774809417969,2.1494379287442174,1,0
2025-10-16T19:25:26.508468,111,23,-35,9.75610648219357,9.73267202479111,1.9586663340579438,0,0
2025-10-16T19:25:26.746531,5197,-2979,-2633,6.946069931290406,7.739233799535014,-0.756327322448662,0,1
2025-10-16T19:25:26.971131,-1198,553,-541,9.862727090696943,9.258307049192714,1.9191609582571891,0,0
2025-10-16T19:25:27.197072,321,-876,-1437,8.971304884193447,9.052995681712163,0.913006918624587,0,0
2025-10-16T19:25:27.410058,416,-2573,-3914,7.6629234509613955,8.05858635175847,-0.3512367969666331,0,0
2025-10-16T19:25:27.644185,-99,65,-258,9.700349202790111,9.233046398165909,1.4979508939119948,0,0
2025-10-16T19:25:27.871176,47,-3,-118,9.731203440157628,9.589410621103557,1.3581366467939535,1,0
2025-10-16T19:25:28.386817,60,-16,-234,9.666557775044064,9.644599012009245,1.1490918421024305,0,0
2025-10-16T19:25:28.636861,783,-425,-153,9.503544064279886,9.54369320801196,0.875997090388972,0,1
2025-10-16T19:25:28.860921,-1462,-702,-384,10.035350202243631,9.8954075228407,1.2506428169170585,0,0
2025-10-16T19:25:29.086046,-1911,-1946,-420,10.158137331119464,10.08335529046731,1.2201068030327837,0,0
2025-10-16T19:25:29.332716,-261,348,62,9.914486099747986,9.962552144358614,0.8674487471987019,0,0
2025-10-16T19:25:29.559545,62,74,40,9.808535298933073,9.852373849538298,0.6764879619265715,1,0
2025-10-16T19:25:30.097362,197,14,-152,9.668254250467626,9.720661091673676,0.4763473411593905,0,0
2025-10-16T19:25:30.323148,-1782,-310,-1023,9.825997805119016,9.796015313072754,0.5633040244169468,0,1
2025-10-16T19:25:30.544396,-656,-497,-573,9.710671381163612,9.73496323227581,0.3979675261950736,0,0
2025-10-16T19:25:30.744108,1400,132,1540,10.195386387178635,10.064198804970234,0.7842701559762667,0,0
2025-10-16T19:25:30.976735,446,-730,1598,10.496976998416537,10.373793273403773,0.9646404705844301,0,0
2025-10-16T19:25:31.202013,722,-2299,3205,11.245272207257065,10.997218994392217,1.5217117422158868,0,0
2025-10-16T19:25:31.717321,107,21,-47,9.751149438494815,10.105824169904283,0.02450907256142637,0,0
2025-10-16T19:25:31.965566,92,37,-135,9.709778551792741,9.822506908379902,-0.01497944194933117,1,0
2025-10-16T19:25:32.191847,-6,38,-96,9.758767507825018,9.776909957951506,0.030212854778323868,0,0
2025-10-16T19:25:32.415710,373,-538,-317,9.526100928421858,9.597489900861229,-0.17985276021594626,0,1
2025-10-16T19:25:32.629504,1562,978,-752,8.971871668822285,9.149944375408456,-0.6521326181248293,0,0
2025-10-16T19:25:32.866362,588,906,-466,9.405795286231868,9.33297121902977,-0.19384919272453763,0,0
2025-10-16T19:25:33.092101,2015,3281,-2110,8.16162822529805,8.495033178275143,-1.277483004746463,0,0
2025-10-16T19:25:33.359118,434,194,-910,9.205458643364569,9.003246848826684,-0.20756873070058782,0,0
2025-10-16T19:25:33.586688,307,16,-3,9.711467925879816,9.509883576841258,0.2651240776315742,0,0
2025-10-16T19:25:34.103487,371,77,-347,9.514428842326577,9.513135101694234,0.06048431135048958,0,0
2025-10-16T19:25:34.326495,1032,1785,199,9.606668525158442,9.580045659935573,0.13567461875942582,0,0
2025-10-16T19:25:34.554211,135,-316,-1654,8.91208871768883,9.102212493655601,-0.4965116896456919,0,0
2025-10-16T19:25:34.776129,116,45,-2617,8.423406990760874,8.616618644379253,-0.8752111409444112,0,0
2025-10-16T19:25:35.027040,86,781,-2561,8.46866716363695,8.5107793005121,-0.73729921604354,0,0
2025-10-16T19:25:35.292708,931,370,-456,9.288348730832984,9.067025428657724,0.07318557994085824,0,0
2025-10-16T19:25:35.514625,-53,66,-189,9.724689121958168,9.537495162620075,0.4526449314170619,0,0
2025-10-16T19:25:35.741475,67,-21,-76,9.74747887076851,9.687710204617066,0.42235942904848145,1,0
2025-10-16T19:25:35.957129,124,30,-56,9.740357264604942,9.725372080373191,0.3688826606193741,0,0
2025-10-16T19:25:36.195076,-343,828,756,10.298234054282132,10.135177613516653,0.8233004628634123,0,1
2025-10-16T19:25:36.420341,-1081,-1354,1318,10.831353141008002,10.633197374294792,1.2049953660105444,0,0
2025-10-16T19:25:36.646254,-10,1737,1125,10.369539529902216,10.444585721907597,0.6602165023609257,0,0
2025-10-16T19:25:36.871538,-1512,3148,1600,11.034343353181683,10.866477820732992,1.1771014010745506,0,0
2025-10-16T19:25:37.096528,50,-14,-156,9.71085913939456,10.039788406204462,-0.13004133642548196,0,0
2025-10-16T19:25:37.365917,-4,37,-91,9.759695045570334,9.839419357092366,-0.07214004485221273,1,0
2025-10-16T19:25:37.876079,-662,1860,186,10.048922602793883,9.989290692964353,0.1928529019693238,0,1
2025-10-16T19:25:38.082359,350,-1064,467,9.978257435278605,9.981397884130553,0.1085472808505561,0,0
2025-10-16T19:25:38.334077,-646,1116,-1392,9.249436195071683,9.457777947937965,-0.5510295445887305,0,0
2025-10-16T19:25:38.558474,571,2285,-2281,8.387948010198135,8.692458817019359,-1.2548310136971708,0,0
2025-10-16T19:25:38.805125,-2436,633,-2481,9.316776754615821,9.139074157049615,-0.2896089369322701,0,0
2025-10-16T19:25:39.030667,176,22,-221,9.63778530129727,9.495834765470594,0.02789430766738619,0,0
2025-10-16T19:25:39.570248,-50,19,67,9.856011406300377,9.753492608098725,0.2186447082971841,1,0
2025-10-16T19:25:39.793146,285,1456,679,10.013931648102506,9.93980163976974,0.3345270421744217,0,1
2025-10-16T19:25:40.015014,98,862,-872,9.311081089772442,9.49003682394196,-0.327205642453803,0,0
2025-10-16T19:25:40.247165,-1563,770,-459,10.047867638258012,9.889089588266266,0.3638572548767243,0,0
2025-10-16T19:25:40.465297,-2232,1188,-457,10.246001386673303,10.144411876169839,0.4992530186633964,0,0
2025-10-16T19:25:40.718196,-1167,-1432,-1397,9.536854467363545,9.70978643553848,-0.1864623506121886,0,0
2025-10-16T19:25:40.910775,81,0,65,9.812832217311078,9.782702039915849,0.07985309824207452,0,0
2025-10-16T19:25:41.111294,65,33,0,9.784299634710134,9.783844903670536,0.045591339012740394,1,0
2025-10-16T19:25:41.629822,186,54,-306,9.590609654967047,9.645611127082617,-0.1315656176192432,0,0
2025-10-16T19:25:41.864093,108,-436,-499,9.539822800242632,9.569933837167218,-0.16199551548870506,0,1
2025-10-16T19:25:42.089225,-1329,-1240,873,10.724634866782853,10.395966795567347,0.9086342088398502,0,0
2025-10-16T19:25:42.291001,-862,-719,239,10.230214833482579,10.27739360641285,0.3679732883621436,0,0
2025-10-16T19:25:42.493699,-1777,-229,-570,10.107943197627927,10.156174677113624,0.21827269651363337,0,0
2025-10-16T19:25:42.719478,35,-622,-790,9.420702483157411,9.6300434478058,-0.4166146739895512,0,0
2025-10-16T19:25:43.216111,7,-4,-20,9.79450450627488,9.747693169408674,-0.0380332515283403,0,0
2025-10-16T19:25:43.439669,50,-10,6,9.793240510805504,9.780276153398745,-0.03491029050971565,1,0
2025-10-16T19:25:43.664955,780,713,678,9.85760198364169,9.835592363117193,0.02616339335250222,0,1
2025-10-16T19:25:43.880316,929,-1137,214,9.649457783400909,9.702438158175688,-0.16166534098512048,0,0
2025-10-16T19:25:44.138246,331,-1257,806,10.148064791789844,10.021223953862318,0.2993271130310693,0,0
2025-10-16T19:25:44.362312,-1607,-2252,3185,12.012435805631084,11.445667662261416,1.9221532284139424,0,0
2025-10-16T19:25:44.588758,204,122,-52,9.709968277310843,10.2040086864127,-0.33785783252195,0,0
2025-10-16T19:25:44.924090,123,-15,-60,9.736829668512383,9.869805064556468,-0.2762782877542093,1,0
2025-10-16T19:25:45.173743,0,-12,16,9.814894018876519,9.830523612173117,-0.1760862825267189,0,0
2025-10-16T19:25:45.735874,469,-860,-184,9.57762726776975,9.649610362614807,-0.3672082802150501,0,1
2025-10-16T19:25:45.960801,513,415,-463,9.398266899982632,9.469807990669493,-0.4855523412713164,0,0
2025-10-16T19:25:46.179525,288,797,-3510,7.940001010467804,8.37543728065306,-1.7268196710769559,0,0
2025-10-16T19:25:46.410178,862,47,-373,9.346383927979351,9.070018744572423,-0.28466472874318,0,0
2025-10-16T19:25:46.626117,152,58,-291,9.60921367305294,9.455740044288735,-0.01939743064506943,0,0
2025-10-16T19:25:47.170257,151,74,-209,9.650464347541224,9.595039038714676,0.01941365234034342,1,0
2025-10-16T19:25:47.395826,-518,-612,-2041,8.950503067312795,9.133960420442707,-0.6045745493736949,0,1
2025-10-16T19:25:47.626140,-1002,-871,526,10.417336803827046,10.052043251858128,0.7660007002398332,0,0
2025-10-16T19:25:47.846674,-2546,838,9,10.541612096863533,10.40226377735204,0.7908898442913423,0,0
2025-10-16T19:25:48.061922,-3652,619,-1961,9.81578882204909,9.982719990751505,0.05780284921844966,0,0
2025-10-16T19:25:48.342287,94,71,-295,9.62220545064621,9.724820426733132,-0.12062263484500303,0,0
2025-10-16T19:25:48.560162,177,104,-295,9.596781381502248,9.633225746716262,-0.12974274927038756,1,0
2025-10-16T19:25:48.793762,30,132,-136,9.720500857279106,9.695659325559541,-0.005350864081925444,0,0
2025-10-16T19:26:24.883177,12,609,785,10.228797030930034,2.05443999975641,10.101853397248288,0,0
2025-10-16T19:26:25.080934,8,624,756,9.713968909800892,7.516168036015737,8.527451954988347,0,0
2025-10-16T19:26:25.335112,14,591,797,10.11335213464374,9.374103215318025,7.930286044678136,0,0
2025-10-16T19:26:25.537266,26,623,767,9.834328799780554,9.703332592719338,6.7971123773967905,0,0
2025-10-16T19:26:25.740010,9,623,779,9.98073280725223,9.90177505877283,6.168375463268902,0,0
2025-10-16T19:26:25.963073,21,629,777,9.915514830138655,9.911604013366238,5.421830208121499,0,0
2025-10-16T19:26:26.189140,20,625,798,9.956646865334763,9.94382610316443,4.853103296750283,0,0
2025-10-16T19:26:26.392308,15,615,762,9.929393314289197,9.933501387946551,4.287114987688093,0,0
2025-10-16T19:26:26.640504,9,616,794,9.95526567094406,9.949070799084838,3.8315060890777133,0,0
2025-10-16T19:26:26.865959,18,626,778,9.936257877395219,9.939904880515813,3.386889241183852,0,0
2025-10-16T19:26:27.084285,25,627,779,9.934877121018552,9.936308196226868,3.0075665283778124,0,0
2025-10-16T19:26:27.361048,15,624,764,9.926593374013455,9.929358550277433,2.664457213112033,0,0
2025-10-16T19:26:27.583766,3,631,788,9.936648970647635,9.93457386346407,2.37594300602337,0,0
2025-10-16T19:26:27.785427,11,608,811,9.96157587276286,9.953890161840674,2.132848287668195,0,0
2025-10-16T19:26:28.014562,21,628,782,9.939813060479358,9.943819893100152,1.8754140014134901,0,0
2025-10-16T19:26:28.238399,17,673,809,9.93535419835014,9.937763829495886,1.6620906662203523,0,0
2025-10-16T19:26:28.463812,161,316,1347,10.31910196603013,10.210559870196592,1.8174508272183487,0,0
2025-10-16T19:26:28.676170,-196,573,208,9.692566720745841,9.840005585842803,1.057967468822472,0,0
2025-10-16T19:26:28.889462,302,691,-465,9.3320734320192,9.476648587859419,0.6196115023422992,0,0
2025-10-16T19:26:29.138855,-2339,-2872,-1165,10.324584054651735,10.083232131307025,1.4321525302595035,0,0
2025-10-16T19:26:29.327566,195,170,-97,9.69828566057402,9.812465247363393,0.7204320612696921,0,0
2025-10-16T19:26:29.565284,-16,-20,-180,9.730863110339524,9.754089916495248,0.6689471348551588,1,0
2025-10-16T19:26:29.789127,43,0,-24,9.796014779285251,9.784081505272539,0.6521475284264372,0,0
2025-10-16T19:26:29.977275,86,15,-71,9.768948664389026,9.773446679493317,0.5589983728123556,0,0
2025-10-16T19:26:30.196036,45,39,-166,9.713448032667946,9.730525734187099,0.44728966417173405,0,0
2025-10-16T19:26:30.412057,-402,181,136,9.812131077041181,9.788903358394686,0.4850229296415851,0,0
2025-10-16T19:26:30.646053,1241,-885,181,10.18805619831426,10.074443418337587,0.7648359329840921,0,1
2025-10-16T19:26:30.869056,919,-817,-600,9.804319131189791,9.881205897693222,0.3385548132889773,0,0
2025-10-16T19:26:31.072897,418,-1222,-1096,9.726028696461963,9.770197524684344,0.23120970956129414,0,0
2025-10-16T19:26:31.589702,-1713,4200,-254,8.16877258699591,8.624593818610878,-1.1780129293211885,0,0
2025-10-16T19:26:31.809936,33,71,-294,9.643971512270538,9.353821168742433,0.26400957437951716,0,0
2025-10-16T19:26:32.039606,204,38,-135,9.724080848848809,9.618692067001147,0.3057031234814394,1,0
2025-10-16T19:26:32.287287,53,15,-45,9.77854098627829,9.733042424627063,0.31995635903089004,0,0
2025-10-16T19:26:32.512775,125,47,0,9.784393209337663,9.769776990131682,0.28943687205342106,0,0
2025-10-16T19:26:32.736929,-41,-1159,248,10.362752111676702,10.193970769599042,0.770919209401749,0,1
2025-10-16T19:26:32.962200,-1708,249,-1844,8.918327017066039,9.281419593369268,-0.5983189131292832,0,0
2025-10-16T19:26:33.177321,-520,-22,-952,9.394838321633326,9.362555407093385,-0.10820959039293918,0,0
2025-10-16T19:26:33.361052,-1895,283,-1163,9.220900655923863,9.263711762092827,-0.2529466877819835,0,0
2025-10-16T19:26:33.582881,-628,-212,-782,9.550767283769625,9.469061299084846,0.0683329662704485,0,0
2025-10-16T19:26:34.084858,-649,11,-877,9.420965160141812,9.43465499397229,-0.05460703496246864,0,0
2025-10-16T19:26:34.328755,-796,-90,-680,9.555134280378313,9.52084168543911,0.07068015504080162,0,0
2025-10-16T19:26:34.545716,-361,197,-1076,9.250571864199129,9.327500054766581,-0.20777276540223535,0,0
2025-10-16T19:26:34.780002,-62,65,-773,9.431462579321918,9.401871229225286,-0.023881066905445537,0,0
2025-10-16T19:26:34.979999,-323,260,-1861,8.859121346701519,9.013608496741622,-0.529663783832168,0,0
2025-10-16T19:26:35.177162,-644,383,-2589,8.478540835306351,8.632400989425342,-0.8099115123396443,0,0
2025-10-16T19:26:35.413948,-2292,18,-6397,6.881576758798575,7.379922224991689,-2.1381835229396606,0,0
2025-10-16T19:26:35.631543,-2801,501,-7261,6.2648852397698676,6.582263544514948,-2.4473339834383463,0,0
2025-10-16T19:26:35.865040,-2953,458,-7346,6.19126156036848,6.302554323321703,-2.2395300204501356,0,0
2025-10-16T19:26:36.069672,-2419,386,-6461,6.629978978627915,6.536782534554668,-1.5997785061047225,0,0
2025-10-16T19:26:36.279902,-4187,389,-8786,5.308595814819982,5.65818046912835,-2.595057168468419,0,0
2025-10-16T19:26:36.516418,-4960,376,-10065,4.512696860560249,4.838741333182202,-3.0124060180861822,0,0
2025-10-16T19:26:36.733834,-4535,285,-10772,4.162558746437443,4.355023826899775,-2.9871658061435764,0,0
2025-10-16T19:26:36.990941,-3633,276,-9925,4.618100670089976,4.543219851232847,-2.2490055144125836,0,0
2025-10-16T19:26:37.238200,-2261,109,-5707,6.800210017761249,6.157792122774028,-0.05942819900491319,0,0
2025-10-16T19:26:37.463348,-1294,116,-2854,8.218826270371801,7.632184273329727,1.2074548074949296,0,0
2025-10-16T19:26:37.682483,-842,-9,-1774,8.842856036878944,8.498256748236022,1.6270264058495323,0,0
2025-10-16T19:26:37.889463,-732,-714,-187,9.77826515599841,9.41393024702294,2.2763774926595435,0,0
2025-10-16T19:26:38.113889,-388,848,1098,9.893777644404246,9.75719638697903,2.1248708366548907,0,0
2025-10-16T19:26:38.340704,381,-395,3413,11.497797590103133,11.00236195307368,3.31261527044216,0,0
2025-10-16T19:26:38.565784,558,55,-1020,9.476165146933042,9.910573836025906,1.1468636860424715,0,0
2025-10-16T19:26:38.783523,-3,-18,-57,9.787186157561433,9.822306582028514,1.2951334299170276,0,0
2025-10-16T19:26:39.009606,16,-15,-89,9.776121367311962,9.78926728564947,1.1407213652349553,1,0
2025-10-16T19:26:39.240268,-12,-10,-124,9.752691058687885,9.763101924928998,0.9925620329703992,0,0
2025-10-16T19:26:39.487448,-573,-949,563,10.25597982753611,10.115689635148783,1.3288611808790176,0,1
2025-10-16T19:26:39.677713,683,833,315,9.816180933484162,9.904507078171218,0.7941267912626349,0,0
2025-10-16T19:26:39.916275,1589,1159,1498,10.43065068312177,10.280891914933061,1.251347567850393,0,0
2025-10-16T19:26:40.134293,2761,1941,1805,10.542133401704884,10.467774989114444,1.2106904388899804,0,0
2025-10-16T19:26:40.363454,-22,48,-228,9.684144889203207,9.90719326872182,0.3133279721673032,0,0
2025-10-16T19:26:40.578187,95,30,-47,9.795684126266577,9.827423506273764,0.37743706838183855,1,0
2025-10-16T19:26:41.062671,184,-10,-246,9.737272313805764,9.762932478459899,0.28341080393714946,0,0
2025-10-16T19:26:41.286637,130,-203,-1121,9.404440354198478,9.506479680400664,-0.04390401449421226,0,1
2025-10-16T19:26:41.512124,1661,197,-909,9.664126785851455,9.61925493698988,0.19169350133710328,0,0
2025-10-16T19:26:41.737041,1008,208,-496,9.708421869199194,9.68304185924528,0.20964394907366798,0,0
2025-10-16T19:26:41.963600,959,853,-353,9.545717934678482,9.584805099460986,0.0416998560909165,0,0
2025-10-16T19:26:42.185816,1291,-94,-1125,9.58605324042644,9.585697976099832,0.07287714917976541,0,0
2025-10-16T19:26:42.660216,825,3220,-10169,4.2620782378400985,5.777365560170665,-4.664890432859648,0,0
2025-10-16T19:26:42.884014,1609,2879,-10887,4.284340461517457,4.709307329013915,-4.124347426184199,0,0
2025-10-16T19:26:43.099576,15999,-1425,-14539,7.228937323368886,6.511762999295543,-1.0480488603247904,0,0
2025-10-16T19:26:43.329558,13136,1485,-3389,10.489044958997225,9.356972191373115,1.9651151256193864,0,0
2025-10-16T19:26:43.528785,12416,-1255,-5108,10.97345987176856,10.512075584501689,2.1770155510808564,0,0
2025-10-16T19:26:43.759158,8927,-222,-5789,9.531824821365065,9.81083827971011,0.653286142800766,0,0
2025-10-16T19:26:43.983197,-919,839,-1138,8.829026603243591,9.10848435180776,-0.04398478431034361,0,0
2025-10-16T19:26:44.213018,3027,414,2173,11.195420154946994,10.601405645930168,2.063146172980378,0,0
2025-10-16T19:26:44.437440,90,297,542,9.932400581608107,10.1228226895691,0.7108042972999834,0,0
2025-10-16T19:26:44.638605,83,32,-195,9.735332553941388,9.845625722671123,0.4563852124123931,0,0
2025-10-16T19:26:44.862925,91,20,-112,9.775773878985039,9.795656143005184,0.4413632017666444,1,0
2025-10-16T19:26:45.065967,104,-13,-106,9.793873765311632,9.79438109199074,0.40817082898347345,0,0
2025-10-16T19:26:45.282750,1841,1709,-1185,9.134070999156474,9.322018215838364,-0.22354095259386939,0,1
2025-10-16T19:26:45.514863,-345,-770,-1457,9.412194796169128,9.386527405246312,0.04848947702665185,0,0
2025-10-16T19:26:45.727418,-172,-1350,-658,9.99121944950003,9.819103063728393,0.5574614575674213,0,0
2025-10-16T19:26:45.965378,-629,-1522,-985,9.814731967998497,9.815976133861172,0.3384438655938071,0,0
2025-10-16T19:26:46.161143,-1781,-3252,-2014,9.754219818801412,9.772068178253036,0.24748978546438494,0,0
2025-10-16T19:26:46.391788,181,-47,-145,9.805106906664614,9.79570293553794,0.2650675079058877,0,0
2025-10-16T19:26:46.889586,51,8,-210,9.726930604533317,9.746505601701033,0.16602756645220565,1,0
2025-10-16T19:26:47.113052,1277,4862,-4396,6.445179785255457,7.384851926109354,-2.767898827883332,0,1
2025-10-16T19:26:47.329488,-1111,111,-280,9.409107271160803,8.832933800416432,0.174144957283546,0,0
2025-10-16T19:26:47.565569,1136,-11,446,10.240151713836754,9.839608555459455,0.8929748684917396,0,0
2025-10-16T19:26:47.780687,1332,532,1537,10.548127268169129,10.346458201671547,1.0668820681253435,0,0
2025-10-16T19:26:48.013967,2566,1446,3123,11.16322598100232,10.930745465458852,1.4942125003930595,0,0
2025-10-16T19:26:48.239678,309,116,-420,9.649245427512213,10.01400490631403,-0.017561242304569787,0,0
2025-10-16T19:26:48.487783,393,128,-31,9.82685453531378,9.880124039615161,0.14218088814936103,0,0
2025-10-16T19:26:49.004460,198,188,141,9.839400550965882,9.850991872116762,0.13745393313918108,1,0
2025-10-16T19:26:49.262971,-632,-1171,553,10.330979497930755,10.194358326616733,0.5588106613644462,0,1
2025-10-16T19:26:49.474223,-641,-483,-1280,9.288058713857602,9.546023102932457,-0.4300663866717513,0,0
2025-10-16T19:26:49.700183,-877,1696,-1549,8.347202191097672,8.688428315193802,-1.2178796402065075,0,0
2025-10-16T19:26:49.894031,328,315,67,9.789240266348365,9.46886107407651,0.1998206245578776,0,0
2025-10-16T19:26:50.129144,53,48,-44,9.781750268482853,9.692691122095898,0.17085975646427354,1,0
2025-10-16T19:26:50.352887,200,102,-575,9.569463163832308,9.60453812637547,-0.0368025974011344,0,1
2025-10-16T19:26:50.579969,226,127,-229,9.709778498448332,9.679823428507238,0.09195707088177563,0,0
2025-10-16T19:26:51.044010,-240,-1622,126,10.411446922029256,10.203201431374524,0.7050289443741418,0,0
2025-10-16T19:26:51.268851,-275,-2104,544,10.756886667957273,10.599288593563308,0.9331993956711608,0,0
2025-10-16T19:26:51.525693,-2312,-3171,1870,11.295654272391243,11.097444381994558,1.3076436524261206,0,0
2025-10-16T19:26:51.750522,56,21,-21,9.801454340013825,10.170338177897035,-0.16573003014410037,0,0
2025-10-16T19:26:52.216957,50,62,-134,9.737781241446932,9.860901989023702,-0.2037936618716304,1,0
2025-10-16T19:26:52.445999,594,1054,444,9.724162680628734,9.763083443316956,-0.19314136318266908,0,1
2025-10-16T19:26:52.672199,-1894,-3687,828,11.109795584268033,10.726474473004947,1.059367494881739,0,0
2025-10-16T19:26:52.895954,-1801,-1951,972,10.541959989584825,10.594479228610016,0.4366596324602743,0,0
2025-10-16T19:26:53.117436,-2318,-2361,1028,10.62012529643051,10.612825533609973,0.45735234821570064,0,0
2025-10-16T19:26:53.346684,326,-119,251,10.02648039327694,10.193374612124213,-0.12107750671361267,0,0
2025-10-16T19:26:53.571417,-9,52,-28,9.773836806087752,9.893251856369545,-0.33200066046646387,1,0
2025-10-16T19:26:53.795915,48,52,-36,9.783068795056133,9.81443072625191,-0.2867363225237634,0,0
2025-10-16T19:26:54.282344,-47,-461,-317,9.834177346399597,9.828556771557704,-0.2093234150610894,0,1
2025-10-16T19:26:54.516670,-115,-1719,-698,10.12519271297253,10.040759807642516,0.07257225321025146,0,0
2025-10-16T19:26:54.729856,751,-2031,-695,10.429116447046448,10.318576641206738,0.3344657780377478,0,0
2025-10-16T19:26:54.967455,153,-75,-268,9.75799465712898,9.917555785715077,-0.29907334672188096,0,0
2025-10-16T19:26:55.185123,79,53,-7,9.80200296012266,9.83489331298188,-0.2265908035731455,1,0
2025-10-16T19:26:55.708715,159,42,-66,9.79855739484039,9.808899860833845,-0.20435621011847016,0,0
2025-10-16T19:26:55.933693,77,1453,1268,9.821641181398538,9.81801455844824,-0.16103603817994933,0,1
2025-10-16T19:26:56.152652,457,759,-686,9.340555911539967,9.476457247504605,-0.5704379598755671,0,0
2025-10-16T19:26:56.407874,1532,-2474,-1274,10.501739807399774,10.209908733581635,0.5247978883569716,0,0
2025-10-16T19:26:56.632543,2232,-3346,-1771,10.77874584442001,10.616835019661083,0.7122943744220956,0,0
2025-10-16T19:26:56.851749,323,10,-53,9.85433671703563,10.071370252125163,-0.188435277609658,0,0
2025-10-16T19:26:57.461365,72,8,116,9.868999682321917,9.926601384530631,-0.1543732034487442,1,0
2025-10-16T19:26:57.680822,903,-1172,-174,10.37048155955552,10.244137824480829,0.308359123502363,0,1
2025-10-16T19:26:57.912855,3055,1594,-1447,9.353112534301431,9.606729319959776,-0.6298594312689718,0,0
2025-10-16T19:26:58.130772,2270,808,107,10.102497808068588,9.961384854518707,0.1061825497667218,0,0
2025-10-16T19:26:58.328668,636,601,-434,9.571766259785399,9.683506176626523,-0.3775978329996353,0,0
2025-10-16T19:26:58.568008,492,600,-636,9.451801049948063,9.517752387240542,-0.4420174872134509,0,0
2025-10-16T19:26:58.780769,-486,745,-310,9.295478556780179,9.358745419167413,-0.5315441700001039,0,0
2025-10-16T19:26:59.015194,-516,798,318,9.531480267126128,9.482313922025359,-0.2625495146029467,0,0
2025-10-16T19:26:59.512709,-377,798,-338,9.290650218024025,9.345204373862188,-0.4471846795430371,0,0
2025-10-16T19:26:59.736865,-215,133,-1234,9.193345702546486,9.236569961743081,-0.48370502846355434,0,0
2025-10-16T19:26:59.962818,-147,3,-1767,9.026876040151315,9.086562222970535,-0.5775923015996993,0,0
2025-10-16T19:27:00.210249,-1005,-330,-8019,6.230729287599733,7.043598661150458,-2.9971109806048246,0,0
2025-10-16T19:27:00.434513,-978,-33,-6605,6.667545999282485,6.774583665207789,-2.27447527618473,0,0
2025-10-16T19:27:00.629455,-2950,528,-6870,5.771286325906649,6.062121307559301,-2.8247442541452026,0,0
2025-10-16T19:27:00.861907,-4143,250,-10137,3.939948479021037,4.543992670939528,-4.136299389967963,0,0
2025-10-16T19:27:01.107524,-3192,-37,-10660,4.015558695133367,4.165969382522089,-3.6073732782654386,0,0
2025-10-16T19:27:01.331683,-3127,-198,-9751,4.4636623008045415,4.378928543098464,-2.806583933862093,0,0
2025-10-16T19:27:01.545456,-1229,61,-6036,6.681699116006647,6.026250525212985,-0.5228445364702121,0,0
2025-10-16T19:27:01.760196,611,1350,-1078,9.284128792881102,8.356823335427913,1.8474302129973512,0,0
2025-10-16T19:27:01.962468,-8,410,-875,9.331489540876508,9.054065641869197,1.683265570926254,0,0
2025-10-16T19:27:02.161976,-666,104,-315,9.415453414573449,9.312408547923372,1.570375672124686,0,0
2025-10-16T19:27:02.361722,-139,4,-957,9.321509340652266,9.318916582978087,1.3117958262786775,0,0
2025-10-16T19:27:02.592714,339,-116,-2500,8.809318799053903,8.954368051148023,0.710341179444863,0,0
2025-10-16T19:27:02.795641,-356,416,-1071,9.122933854018088,9.07495416414058,0.9096466634044867,0,0
2025-10-16T19:27:02.997800,-1164,489,-172,9.235872124032023,9.190069276242877,0.9084284478902609,0,0
2025-10-16T19:27:03.215862,-565,323,-651,9.257666298739801,9.23842583524825,0.8263770231918435,0,0
2025-10-16T19:27:03.447679,-1208,397,221,9.41663806600897,9.365912667270358,0.8753491696349668,0,0
2025-10-16T19:27:03.673142,304,-103,143,9.996709780163082,9.817162983974832,1.2929446653079026,0,0
2025-10-16T19:27:03.861970,-242,1018,919,9.949137043579773,9.910009070843131,1.1132869637765566,0,0
2025-10-16T19:27:04.101508,-741,381,2976,10.8156809361319,10.557895225818909,1.7588120195430121,0,0
2025-10-16T19:27:04.325958,142,-114,-302,9.74599924849763,9.97709307975769,0.6121991214140078,0,0
2025-10-16T19:27:04.548470,52,89,-236,9.705227954404755,9.782610224004232,0.507636360844204,1,0
2025-10-16T19:27:04.768253,-2,67,-186,9.712126294127147,9.732188471859942,0.4570945103394505,0,0
2025-10-16T19:27:05.024364,-42,0,-158,9.723938883866298,9.726287003513422,0.41656055669150843,0,0
2025-10-16T19:27:05.212723,-11314,-13805,3506,9.901058541134216,9.849151173011414,0.5308539418441519,0,1
2025-10-16T19:27:05.451041,468,399,-752,9.580793579057374,9.657177483235817,0.18707983442831838,0,0
2025-10-16T19:27:05.663295,136,470,244,9.863285205124898,9.804619779461897,0.4171507510929229,0,0
2025-10-16T19:27:05.898908,2359,530,753,10.905402331211281,10.592081333973075,1.2963621987765845,0,0
2025-10-16T19:27:06.097649,4276,1346,196,11.21422117348143,11.03633748828771,1.426989123261127,0,0
2025-10-16T19:27:06.597210,21,-10,-39,9.800266760691207,10.152095477827036,0.01157957780797459,0,0
2025-10-16T19:27:06.824170,9,-13,-92,9.774202845511493,9.881764231016659,-0.012867375302843142,1,0
2025-10-16T19:27:07.072452,56,-29,-166,9.764268760091534,9.79771205737375,-0.020256014827836104,0,0
2025-10-16T19:27:07.329817,259,1664,-509,9.362627424121566,9.486467642116436,-0.37479875072385654,0,1
2025-10-16T19:27:07.566633,348,-26,-608,9.68807792046522,9.630692623645858,-0.04383925155521311,0,0
2025-10-16T19:27:07.765990,1518,-1364,-1187,10.147181463878027,9.999831888332272,0.36903862534447857,0,0
2025-10-16T19:27:07.967391,652,-3773,-1463,10.154983918996976,10.11082225519322,0.33477234666687944,0,0
2025-10-16T19:27:08.198640,1943,-415,-1050,10.199310538729996,10.174123695790326,0.3367781730288291,0,0
2025-10-16T19:27:08.445333,493,242,-559,9.712281976505494,9.843738191743066,-0.13347715518910636,0,0
2025-10-16T19:27:08.938403,375,174,-401,9.740755367863866,9.770067861076043,-0.09328164642570526,0,0
2025-10-16T19:27:09.186401,434,1203,-2792,8.553746209385745,8.8999536526854,-1.1373652698548584,0,0
2025-10-16T19:27:09.413244,-378,242,-1344,9.05245202413644,9.00904568403384,-0.5673625716264278,0,0
2025-10-16T19:27:09.635483,104,973,-395,9.504566516380947,9.36352405427382,-0.10238233564156309,0,0
2025-10-16T19:27:09.833786,48,558,-774,9.399548342547613,9.389231958099572,-0.18442199877763055,0,0
2025-10-16T19:27:10.032392,-37,-43,-17,9.792972793007758,9.67747824322989,0.18581500091599196,0,0
2025-10-16T19:27:10.212269,47,291,-395,9.604230617535498,9.626696450615086,-0.0026299387419728426,1,0
2025-10-16T19:27:10.415503,1180,1763,-3137,8.607624316058075,8.897687686838832,-0.8876862909995357,0,1
2025-10-16T19:27:10.625202,-190,-582,-1360,9.252060467521789,9.151193649764544,-0.21609485871155307,0,0
2025-10-16T19:27:10.828985,-911,-214,-530,9.27040836261219,9.236475709287037,-0.17567143947335043,0,0
2025-10-16T19:27:11.053371,-1876,-548,-1057,8.735686204631948,8.878228314111789,-0.6310886578082257,0,0
2025-10-16T19:27:11.279963,109,22,-196,9.75863849876916,9.508043141314474,0.3481178563280425,0,0
2025-10-16T19:27:11.524891,-19,2,-97,9.756854398666654,9.686034061667502,0.30767071402882745,1,0
2025-10-16T19:27:11.752343,0,18,-84,9.76665018106325,9.743704029816204,0.28202605688783433,0,0
2025-10-16T19:27:12.223258,4001,-2119,-2677,10.43432772961006,10.237752206140993,0.843683242385269,0,1
2025-10-16T19:27:12.451176,1044,-665,-171,10.224972779162357,10.228610248523328,0.5635149187768619,0,0
2025-10-16T19:27:12.667441,200,-672,374,10.158989108671657,10.178805706357112,0.4419892420540525,0,0
2025-10-16T19:27:12.897833,-397,-538,-373,9.592972681655803,9.759721134583932,-0.11018138391145685,0,0
2025-10-16T19:27:13.099053,1174,-9,434,10.423028318987255,10.234228025811976,0.6395109387387201,0,0
2025-10-16T19:27:13.570365,259,533,-1008,9.355667053222062,9.605736060610463,-0.38008716519096464,0,0
2025-10-16T19:27:13.822460,778,3613,-2189,8.474466640972256,8.796465261083766,-1.1204834717127123,0,0
2025-10-16T19:27:14.067738,476,239,-566,9.688660191116343,9.434710485278053,0.08324873398682811,0,0
2025-10-16T19:27:14.266032,362,105,-223,9.818320802190698,9.708461596749379,0.18932144628732986,0,0
2025-10-16T19:27:14.484956,27,5,-126,9.758074589102671,9.743953006038513,0.1146658922152711,1,0
2025-10-16T19:27:14.720787,128,147,-386,9.651631212313434,9.677909205574494,0.007304593175704086,0,0
2025-10-16T19:27:14.947372,-1121,-836,1598,10.27908716959261,10.107971013268692,0.563898922023083,0,1
2025-10-16T19:27:15.192682,-637,480,1401,10.151403717011748,10.139041259024111,0.387518463162191,0,0
2025-10-16T19:27:15.418126,388,383,425,10.078379711613655,10.095646097693677,0.27938580239166116,0,0
2025-10-16T19:27:15.637435,-677,-467,654,9.936650867232306,9.981906439356978,0.12228959436021193,0,0
2025-10-16T19:27:15.868431,-1169,-527,86,9.51067508845644,9.644803919404405,-0.2697841129266331,0,0
2025-10-16T19:27:16.086157,-804,-616,-132,9.554317187781308,9.580072858548363,-0.20089660203801343,0,0
2025-10-16T19:27:16.654522,-804,-349,145,9.637331470531137,9.621033678221105,-0.10472250161821221,0,0
2025-10-16T19:27:16.899713,-439,-586,-173,9.660508210654212,9.64927238587865,-0.07244238314701001,0,0
2025-10-16T19:27:17.105080,-671,106,-532,9.307460377420146,9.404751962563834,-0.3779905259971136,0,0
2025-10-16T19:27:17.352013,-604,52,-878,9.18317911638443,9.246246454266474,-0.446200569754141,0,0
2025-10-16T19:27:17.564248,-482,-552,-765,9.369335213192247,9.334299871621702,-0.2310143531563349,0,0
2025-10-16T19:27:17.802836,-372,86,-863,9.268780333742122,9.287429472860826,-0.29455443112968654,0,0
2025-10-16T19:27:18.018015,-656,62,-963,9.124398740631367,9.170802956905899,-0.3899353082495575,0,0
2025-10-16T19:27:18.276860,-246,-270,-1237,9.202029071432161,9.193141033256325,-0.27744074517485134,0,0
2025-10-16T19:27:18.524187,-191,-36,-588,9.478686572766513,9.397410381520503,-0.0006958062485494046,0,0
2025-10-16T19:27:18.749165,-87,-979,409,10.105902790074468,9.904241210654407,0.556578672333499,0,0
2025-10-16T19:27:18.968814,-204,-981,-989,9.432978119182449,9.567115984600914,-0.10335768837844979,0,0
2025-10-16T19:27:19.199942,-113,-542,-645,9.556112889910183,9.55924475332474,0.01756926357432138,0,0
2025-10-16T19:27:19.420900,423,-2021,-2995,8.916295185493224,9.099300992995076,-0.5527836044162755,0,0
2025-10-16T19:27:19.647853,-141,63,-79,9.710423171343177,9.536476545781106,0.2144018503185986,0,0
2025-10-16T19:27:19.867366,58,6,-37,9.809497552745263,9.731786279039987,0.27848124622816733,1,0
2025-10-16T19:27:20.098405,29,-14,-22,9.808915035750541,9.786961509207185,0.24687544576301398,0,0
2025-10-16T19:27:20.322500,99,-16,-54,9.818397729648765,9.809449888022368,0.22773954446794276,0,0
2025-10-16T19:27:20.547959,526,200,-395,9.773213840859485,9.783527880099117,0.16217601640909185,0,1
2025-10-16T19:27:20.774749,-440,-15,913,10.086424731184081,10.000209753220059,0.422316988758849,0,0
