                                                                                LinearAcceleration                                                              04.04.2511.32.4552  
Timestamp,AccX,AccY,AccZ
1743758128.013,-9.475915908813477,2.9624202251434326,0.8758043646812439
1743758128.013,-9.499845504760742,3.0054924488067627,0.9906639456748962
1743758128.013,-9.413700103759766,3.034207344055176,1.0289504528045654
1743758128.013,-9.475915908813477,2.9815635681152344,1.0337363481521606
1743758128.092,-9.423272132873535,2.9624202251434326,1.0528795719146729
1743758128.092,-9.198338508605957,3.048564910888672,1.0480937957763672
1743758128.092,-9.322770118713379,3.015064239501953,1.0241646766662598
1743758128.092,-9.241411209106445,3.019850015640259,0.8997334241867065
1743758128.17,-9.56684684753418,2.6752712726593018,0.8805902004241943
1743758128.17,-9.317984580993652,2.6609137058258057,1.0050214529037476
1743758128.17,-9.179195404052734,2.7374868392944336,0.904519259929657
1743758128.17,-9.317984580993652,2.928919553756714,0.904519259929657
1743758128.249,-9.590775489807129,2.9193477630615234,0.708300769329071
1743758128.249,-9.64341926574707,3.000706672668457,0.6939433217048645
1743758128.249,-9.8444242477417,3.1921393871307373,0.7322298884391785
1743758128.249,-9.801351547241211,3.196925163269043,0.7178724408149719
1743758128.328,-9.868352890014648,3.1251380443573,0.746587336063385
1743758128.328,-9.71520709991455,3.000706672668457,0.9380199909210205
1743758128.328,-9.71520709991455,2.9193477630615234,0.9810923337936401
1743758128.328,-9.475915908813477,2.7949166297912598,1.043307900428772
1743758128.407,-9.456772804260254,2.7566301822662354,0.923662543296814
1743758128.407,-9.437629699707031,2.7422726154327393,0.7800880670547485
1743758128.407,-9.298840522766113,2.7518444061279297,0.8614469170570374
1743758128.407,-9.418486595153809,2.732701063156128,0.7370156645774841
1743758128.486,-9.27969741821289,2.593912363052368,0.8518753051757812
1743758128.486,-9.054763793945312,2.6226272583007812,0.8853759765625
1743758128.486,-9.116979598999023,2.598698139190674,0.8997334241867065
1743758128.486,-8.992548942565918,2.6034839153289795,1.0672370195388794
1743758128.564,-9.260554313659668,2.488624334335327,0.9667348861694336
1743758128.564,-9.308412551879883,2.670485496520996,0.9667348861694336
1743758128.564,-9.054763793945312,2.7422726154327393,1.1198810338974
1743758128.564,-9.404129028320312,2.928919553756714,0.8518753051757812
1743758128.643,-9.4950590133667,2.8906328678131104,0.5838695764541626
1743758128.643,-9.451987266540527,2.9480626583099365,0.588655412197113
1743758128.643,-9.27969741821289,2.9528486728668213,0.7370156645774841
1743758128.643,-9.236625671386719,2.8762755393981934,0.6221560835838318
1743758128.722,-9.150480270385742,2.9624202251434326,0.4929390549659729
1743758128.722,-9.839637756347656,2.804488182067871,0.46900999546051025
1743758128.722,-9.236625671386719,2.584340810775757,0.6652284264564514
1743758128.722,-8.30817699432373,2.584340810775757,1.7228938341140747
1743758128.8,-9.203125,2.775773286819458,0.6365135312080383
1743758128.8,-9.308412551879883,3.043779134750366,0.540797233581543
1743758128.8,-8.729329109191895,3.259140729904175,0.9667348861694336
1743758128.8,-8.968619346618652,3.163424491882324,1.2825987339019775
1743758128.879,-9.585989952087402,3.350071430206299,1.2347406148910522
1743758128.879,-10.10285758972168,3.5080032348632812,0.5025107264518738
1743758128.879,-10.203360557556152,3.675506830215454,0.7848738431930542
1743758128.879,-9.686491966247559,3.4027152061462402,1.2108114957809448
1743758128.958,-9.629061698913574,3.603719472885132,1.0959519147872925
1743758128.958,-10.040642738342285,3.8956544399261475,0.588655412197113
1743758128.958,-9.729564666748047,3.5941479206085205,0.7130866050720215
1743758128.958,-9.528559684753418,3.890868663787842,0.26800569891929626
1743758129.037,-9.222268104553223,3.843010425567627,0.06700142472982407
1743758129.037,-9.46155834197998,3.6132912635803223,-0.08135887235403061
1743758129.037,-8.68147087097168,3.527146577835083,0.19621846079826355
1743758129.037,-8.834616661071777,3.2687125205993652,0.2727915346622467
1743758129.116,-8.963833808898926,3.153852939605713,0.2536482512950897
1743758129.116,-9.241411209106445,3.407501220703125,0.06221561133861542
1743758129.116,-8.997334480285645,3.709007501602173,0.32543548941612244
1743758129.116,-8.944690704345703,3.5750045776367188,0.5838695764541626
1743758129.194,-9.294054985046387,3.7185792922973633,0.7418015003204346
1743758129.194,-9.418486595153809,4.168446063995361,0.7800880670547485
1743758129.194,-9.518988609313965,4.082301139831543,0.8518753051757812
1743758129.194,-9.64341926574707,3.9961564540863037,0.679585874080658
1743758129.273,-9.672134399414062,4.0583720207214355,0.3541503846645355
1743758129.273,-9.729564666748047,3.704221725463867,0.3015064299106598
1743758129.273,-9.21748161315918,3.3692145347595215,0.3445787727832794
1743758129.273,-8.93990421295166,3.4314301013946533,0.3302213251590729
1743758129.352,-9.504631042480469,3.8765110969543457,-0.15314611792564392
1743758129.352,-9.136122703552246,4.101444244384766,-0.3732936680316925
1743758129.352,-9.46155834197998,3.977013349533081,-0.2010042816400528
1743758129.352,-9.877924919128418,3.6372203826904297,-0.15314611792564392
1743758129.43,-9.767850875854492,3.5080032348632812,0.4307234585285187
1743758129.43,-9.705635070800781,3.527146577835083,0.5503688454627991
1743758129.43,-9.595561027526855,3.68986439704895,0.44986671209335327
1743758129.43,-9.0978364944458,3.570218801498413,0.5742979645729065
1743758129.509,-9.116979598999023,3.3692145347595215,0.47858160734176636
1743758129.509,-8.877689361572266,3.3979294300079346,0.5503688454627991
1743758129.509,-9.026049613952637,3.2495691776275635,0.3924369215965271
1743758129.509,-9.002120018005371,3.1921393871307373,0.18664683401584625
1743758129.588,-8.93990421295166,3.2208542823791504,0.4211518168449402
1743758129.588,-8.432607650756836,3.4266443252563477,0.5599405169487
1743758129.588,-8.805901527404785,3.752079963684082,0.3350071310997009
1743758129.588,-9.270126342773438,3.886082649230957,0.08135887235403061
1743758129.667,-9.27969741821289,3.943512439727783,-0.0047858161851763725
1743758129.667,-9.174409866333008,3.9961564540863037,0.009571632370352745
1743758129.667,-9.518988609313965,3.737722396850586,0.06700142472982407
1743758129.667,-9.270126342773438,3.766437292098999,0.2727915346622467
1743758129.746,-9.078693389892578,3.8956544399261475,0.37807947397232056
1743758129.746,-9.260554313659668,4.005728244781494,0.16271774470806122
1743758129.746,-9.576417922973633,3.9578700065612793,-0.014357448555529118
1743758129.746,-9.236625671386719,4.0152997970581055,-0.24886244535446167
1743758129.825,-9.078693389892578,3.9674415588378906,-0.181861013174057
1743758129.825,-9.183980941772461,3.723365068435669,0.11485958844423294
1743758129.825,-9.222268104553223,3.6132912635803223,0.31586387753486633
1743758129.825,-9.030835151672363,3.5510756969451904,0.3924369215965271
1743758129.903,-9.006906509399414,3.5175747871398926,0.19621846079826355
1743758129.903,-9.298840522766113,3.584576368331909,0.24886244535446167
1743758129.903,-9.456772804260254,3.6707210540771484,0.13400284945964813
1743758129.903,-9.322770118713379,3.436216115951538,0.16271774470806122
1743758129.982,-9.19355297088623,3.484074115753174,0.339792937040329
1743758129.982,-9.370628356933594,3.479288339614868,0.29672059416770935
1743758129.982,-9.073907852172852,3.4553592205047607,0.13400284945964813
1743758129.982,-9.179195404052734,3.598933696746826,0.08614469319581985
1743758130.06,-8.604897499084473,3.5223608016967773,0.16750356554985046
1743758130.06,-8.384750366210938,3.4601449966430664,0.22971917688846588
1743758130.06,-8.896832466125488,3.632434368133545,-0.13400284945964813
1743758130.06,-8.906403541564941,3.4122869968414307,-0.11964540183544159
1743758130.139,-9.605133056640625,3.464931011199951,-0.4737958014011383
1743758130.139,-9.648205757141113,3.675506830215454,-0.32543548941612244
1743758130.139,-9.877924919128418,4.024871349334717,0
1743758130.139,-10.236861228942871,4.10623025894165,0.30629223585128784
1743758130.218,-10.217717170715332,3.977013349533081,0.7753022313117981
1743758130.218,-9.633848190307617,3.809509754180908,0.8662327527999878
1743758130.218,-9.356270790100098,3.709007501602173,0.7609447836875916
1743758130.218,-9.882710456848145,3.584576368331909,0.14836029708385468
1743758130.296,-9.55727481842041,3.4266443252563477,0.11007377505302429
1743758130.296,-9.01169204711914,3.350071430206299,0.07657305896282196
1743758130.296,-8.987762451171875,3.287855625152588,-0.181861013174057
1743758130.296,-8.94947624206543,3.239997625350952,-0.16271774470806122
1743758130.375,-9.231839179992676,3.105994701385498,-0.10528795421123505
1743758130.375,-9.207910537719727,3.077279806137085,-0.12921704351902008
1743758130.375,-9.160052299499512,3.4410018920898438,0.11007377505302429
1743758130.375,-9.088264465332031,3.345285415649414,0.023929081857204437
1743758130.454,-9.241411209106445,3.646791934967041,0.29672059416770935
1743758130.454,-9.303627014160156,3.7472941875457764,0.4115802049636841
1743758130.454,-9.222268104553223,3.4266443252563477,0.45943835377693176
1743758130.454,-9.22705364227295,3.273498296737671,0.5168681740760803
1743758130.533,-9.303627014160156,3.091637372970581,0.4929390549659729
1743758130.533,-9.480701446533203,3.2017109394073486,0.22971917688846588
1743758130.533,-9.337127685546875,3.4314301013946533,0.009571632370352745
1743758130.533,-8.753257751464844,3.7329366207122803,-0.15314611792564392
1743758130.612,-9.27969741821289,3.570218801498413,0.13878867030143738
1743758130.612,-9.356270790100098,3.646791934967041,0.14357449114322662
1743758130.612,-9.250982284545898,3.4122869968414307,0.26800569891929626
1743758130.612,-9.0978364944458,3.196925163269043,0.5264397859573364
1743758130.69,-9.298840522766113,2.924133777618408,0.6843717098236084
1743758130.69,-9.437629699707031,3.2160685062408447,0.3206496834754944
1743758130.69,-9.542917251586914,3.3835721015930176,0.08135887235403061
1743758130.69,-9.571632385253906,3.5080032348632812,-0.11485958844423294
1743758130.769,-9.456772804260254,3.589362144470215,0.009571632370352745
1743758130.769,-9.475915908813477,3.3404996395111084,0.08614469319581985
1743758130.769,-9.614705085754395,3.163424491882324,0.05264397710561752
1743758130.769,-9.413700103759766,3.062922477722168,0.18664683401584625
1743758130.848,-9.317984580993652,3.0868513584136963,0.30629223585128784
1743758130.848,-9.370628356933594,3.2830698490142822,0.2010042816400528
1743758130.848,-9.523774147033691,3.302213191986084,0.17707519233226776
1743758130.848,-9.447200775146484,3.364428758621216,0.22014755010604858
1743758130.926,-9.059550285339355,3.2782840728759766,0.22014755010604858
1743758130.926,-9.303627014160156,3.196925163269043,0.2105759084224701
1743758130.926,-9.47113037109375,3.1442811489105225,0.18664683401584625
1743758130.926,-9.370628356933594,2.98634934425354,0.2632198929786682
1743758131.005,-9.102622032165527,3.034207344055176,0.11007377505302429
1743758131.005,-9.164837837219238,3.043779134750366,-0.07178724557161331
1743758131.005,-9.394556999206543,3.163424491882324,0.09571632742881775
1743758131.005,-9.389771461486816,3.1586387157440186,0.12921704351902008
1743758131.084,-9.408914566040039,3.1490671634674072,0.0909305065870285
1743758131.084,-9.442415237426758,3.259140729904175,0.25843408703804016
1743758131.084,-9.466344833374023,3.3548572063446045,0.34936457872390747
1743758131.084,-9.585989952087402,3.3404996395111084,0.22971917688846588
1743758131.163,-9.55727481842041,3.2974274158477783,0.3302213251590729
1743758131.163,-9.56684684753418,3.2687125205993652,0.14357449114322662
1743758131.163,-9.590775489807129,3.273498296737671,0.07657305896282196
1743758131.163,-9.4950590133667,3.1251380443573,0.16750356554985046
1743758131.242,-9.528559684753418,3.1107804775238037,0.05742979422211647
1743758131.242,-9.475915908813477,3.0724940299987793,0.16750356554985046
1743758131.242,-9.39934253692627,3.058136463165283,0.18664683401584625
1743758131.242,-9.389771461486816,3.0102784633636475,0.24886244535446167
1743758131.32,-9.222268104553223,3.0677082538604736,0.38765111565589905
1743758131.32,-9.37541389465332,3.015064239501953,0.3015064299106598
1743758131.32,-9.36584186553955,3.058136463165283,0.27757734060287476
1743758131.32,-9.322770118713379,3.1155662536621094,0.18664683401584625
1743758131.399,-9.28926944732666,3.0724940299987793,0.0909305065870285
1743758131.399,-9.341913223266602,3.062922477722168,-0.023929081857204437
1743758131.399,-9.337127685546875,3.015064239501953,-0.07657305896282196
1743758131.399,-9.456772804260254,3.0389933586120605,-0.047858163714408875
1743758131.478,-9.447200775146484,3.139495372772217,0.01914326474070549
1743758131.478,-9.518988609313965,3.182567834854126,0.03828652948141098
1743758131.478,-9.542917251586914,3.2208542823791504,0.11485958844423294
1743758131.478,-9.466344833374023,3.3404996395111084,0.27757734060287476
1743758131.556,-9.370628356933594,3.2639267444610596,0.3445787727832794
1743758131.556,-9.4950590133667,3.182567834854126,0.3541503846645355
1743758131.556,-9.47113037109375,3.1299238204956055,0.36850783228874207
1743758131.556,-9.346698760986328,3.105994701385498,0.22014755010604858
1743758131.635,-9.389771461486816,3.1299238204956055,0.07657305896282196
1743758131.635,-9.341913223266602,3.2208542823791504,0.05264397710561752
1743758131.635,-9.13133716583252,3.134709596633911,0.13878867030143738
1743758131.635,-9.059550285339355,3.0677082538604736,0.21536172926425934
1743758131.714,-9.327555656433105,2.943276882171631,0.2536482512950897
1743758131.714,-9.303627014160156,2.98634934425354,0.3015064299106598
1743758131.714,-9.370628356933594,3.0102784633636475,0.339792937040329
1743758131.714,-9.39934253692627,3.0389933586120605,0.3445787727832794
1743758131.793,-9.64341926574707,2.9959208965301514,0.28714898228645325
1743758131.793,-9.523774147033691,3.1012089252471924,0.2823631465435028
1743758131.793,-9.442415237426758,2.9528486728668213,0.3015064299106598
1743758131.793,-9.538131713867188,2.8906328678131104,0.21536172926425934
1743758131.872,-9.633848190307617,2.8906328678131104,0.15793193876743317
1743758131.872,-9.64341926574707,2.9480626583099365,-0.07178724557161331
1743758131.872,-9.672134399414062,2.943276882171631,-0.181861013174057
1743758131.872,-9.691277503967285,2.9672060012817383,-0.14357449114322662
1743758131.95,-9.614705085754395,2.938491106033325,-0.04307234659790993
1743758131.95,-9.65299129486084,2.9767775535583496,0.009571632370352745
1743758131.95,-9.696063995361328,2.924133777618408,0.028714897111058235
1743758131.95,-9.758278846740723,2.9911351203918457,0.07178724557161331
1743758132.029,-9.700849533081055,3.02942156791687,-0.009571632370352745
1743758132.029,-9.71520709991455,3.0820655822753906,-0.01914326474070549
1743758132.029,-9.46155834197998,3.2495691776275635,0.13878867030143738
1743758132.029,-9.370628356933594,3.3117847442626953,0.009571632370352745
1743758132.108,-9.322770118713379,3.302213191986084,-0.07657305896282196
1743758132.108,-9.55727481842041,3.302213191986084,-0.07657305896282196
1743758132.108,-9.28926944732666,3.2495691776275635,0.0909305065870285
1743758132.108,-9.169623374938965,3.2926416397094727,0.047858163714408875
1743758132.186,-9.179195404052734,3.1442811489105225,0.08614469319581985
1743758132.186,-9.317984580993652,3.1107804775238037,-0.03350071236491203
1743758132.186,-9.490273475646973,3.091637372970581,0.01914326474070549
1743758132.186,-9.236625671386719,3.1251380443573,0.05264397710561752
1743758132.265,-9.528559684753418,3.153852939605713,-0.15314611792564392
1743758132.265,-9.504631042480469,3.316570520401001,0.11007377505302429
1743758132.265,-9.46155834197998,3.2352118492126465,0.13400284945964813
1743758132.265,-9.39934253692627,3.0964231491088867,0.08614469319581985
1743758132.344,-9.389771461486816,3.1729960441589355,0.12921704351902008
1743758132.344,-9.619490623474121,3.1729960441589355,-0.1005021408200264
1743758132.344,-9.39934253692627,3.2017109394073486,-0.11485958844423294
1743758132.344,-9.270126342773438,3.225640058517456,-0.28714898228645325
1743758132.422,-9.432844161987305,3.259140729904175,-0.16750356554985046
1743758132.422,-9.236625671386719,3.2782840728759766,-0.13400284945964813
1743758132.422,-9.39934253692627,3.3213565349578857,-0.17707519233226776
1743758132.422,-9.332341194152832,3.2974274158477783,-0.028714897111058235
1743758132.501,-9.4950590133667,3.2782840728759766,-0.01914326474070549
1743758132.501,-9.188767433166504,3.3069989681243896,0.10528795421123505
1743758132.501,-9.164837837219238,3.330928087234497,0.2010042816400528
1743758132.501,-9.255768775939941,3.302213191986084,0.12921704351902008
1743758132.58,-9.39934253692627,3.2208542823791504,0.06221561133861542
1743758132.58,-9.523774147033691,3.2064969539642334,-0.014357448555529118
1743758132.58,-9.198338508605957,3.259140729904175,0.009571632370352745
1743758132.58,-9.37541389465332,3.259140729904175,-0.05742979422211647
1743758132.659,-9.294054985046387,3.239997625350952,0.12921704351902008
1743758132.659,-9.490273475646973,3.2017109394073486,0.13878867030143738
1743758132.659,-9.341913223266602,3.2687125205993652,0.13878867030143738
1743758132.659,-9.456772804260254,3.2926416397094727,0.11485958844423294
1743758132.738,-9.562060356140137,3.2687125205993652,0.14836029708385468
1743758132.738,-9.418486595153809,3.1873536109924316,0.20579010248184204
1743758132.738,-9.475915908813477,3.077279806137085,0.10528795421123505
1743758132.738,-9.332341194152832,3.0102784633636475,0.31586387753486633
1743758132.816,-9.46155834197998,3.0054924488067627,0.028714897111058235
1743758132.816,-9.179195404052734,3.0246357917785645,0.0909305065870285
1743758132.816,-9.547703742980957,2.9624202251434326,0
1743758132.816,-9.518988609313965,2.924133777618408,0.07657305896282196
1743758132.895,-9.423272132873535,2.9815635681152344,-0.0047858161851763725
1743758132.895,-9.274911880493164,2.9624202251434326,0.07657305896282196
1743758132.895,-9.46155834197998,2.9624202251434326,0.03350071236491203
1743758132.895,-9.451987266540527,3.0533506870269775,0.05742979422211647
1743758132.974,-9.394556999206543,3.182567834854126,0.028714897111058235
1743758132.974,-9.351485252380371,3.120352268218994,-0.009571632370352745
1743758132.974,-9.337127685546875,3.1251380443573,0.03350071236491203
1743758132.974,-9.255768775939941,3.105994701385498,0.11485958844423294
1743758133.052,-9.370628356933594,3.077279806137085,0.14836029708385468
1743758133.052,-9.46155834197998,3.034207344055176,0.1005021408200264
1743758133.052,-9.480701446533203,3.0389933586120605,0.11007377505302429
1743758133.052,-9.595561027526855,3.043779134750366,0.01914326474070549
1743758133.131,-9.576417922973633,3.062922477722168,0.009571632370352745
1743758133.131,-9.533346176147461,3.120352268218994,0.05264397710561752
1743758133.131,-9.614705085754395,3.259140729904175,-0.06221561133861542
1743758133.131,-9.581204414367676,3.2974274158477783,-0.023929081857204437
1743758133.21,-9.499845504760742,3.484074115753174,-0.11007377505302429
1743758133.21,-9.322770118713379,3.5367181301116943,0.009571632370352745
1743758133.21,-9.418486595153809,3.421858549118042,0.028714897111058235
1743758133.21,-9.337127685546875,3.4027152061462402,0.16750356554985046
1743758133.289,-9.341913223266602,3.3979294300079346,0.1914326548576355
1743758133.289,-9.298840522766113,3.316570520401001,0.14836029708385468
1743758133.289,-9.308412551879883,3.3357138633728027,0.05742979422211647
1743758133.289,-9.246196746826172,3.2639267444610596,0.13878867030143738
1743758133.368,-9.198338508605957,3.287855625152588,0.15793193876743317
1743758133.368,-9.174409866333008,3.244783401489258,0.22014755010604858
1743758133.368,-9.207910537719727,3.1586387157440186,0.30629223585128784
1743758133.368,-9.380199432373047,3.1442811489105225,0.2010042816400528
1743758133.446,-9.255768775939941,3.120352268218994,0.2632198929786682
1743758133.446,-9.317984580993652,3.1012089252471924,0.22971917688846588
1743758133.446,-9.423272132873535,3.0246357917785645,0.22971917688846588
1743758133.446,-9.39934253692627,3.000706672668457,0.16750356554985046
1743758133.525,-9.356270790100098,3.015064239501953,0.05742979422211647
1743758133.525,-9.538131713867188,3.0389933586120605,-0.07178724557161331
1743758133.525,-9.39934253692627,3.019850015640259,0.13878867030143738
1743758133.525,-9.523774147033691,2.9145619869232178,0.01914326474070549
1743758133.604,-9.480701446533203,2.900204658508301,0.2632198929786682
1743758133.604,-9.55727481842041,2.924133777618408,0.2536482512950897
1743758133.604,-9.490273475646973,2.8858470916748047,0.14357449114322662
1743758133.604,-9.542917251586914,2.8714897632598877,0.03828652948141098
1743758133.682,-9.629061698913574,2.8571321964263916,0.07657305896282196
1743758133.682,-9.686491966247559,2.833203077316284,0.10528795421123505
1743758133.682,-9.806137084960938,2.8140599727630615,-0.03828652948141098
1743758133.682,-9.8444242477417,2.747058391571045,-0.05264397710561752
1743758133.761,-9.791779518127441,2.7949166297912598,-0.14836029708385468
1743758133.761,-9.700849533081055,2.8427748680114746,-0.22493335604667664
1743758133.761,-9.672134399414062,2.881061315536499,-0.11964540183544159
1743758133.761,-9.696063995361328,2.8140599727630615,-0.08614469319581985
1743758133.84,-9.629061698913574,2.833203077316284,-0.11007377505302429
1743758133.84,-9.518988609313965,2.8427748680114746,-0.06221561133861542
1743758133.84,-9.518988609313965,2.823631525039673,0
1743758133.84,-9.571632385253906,2.747058391571045,0.028714897111058235
1743758133.919,-9.576417922973633,2.7709875106811523,0.08614469319581985
1743758133.919,-9.37541389465332,2.7374868392944336,0.13400284945964813
1743758133.919,-9.39934253692627,2.775773286819458,0.16750356554985046
1743758133.919,-9.39934253692627,2.7949166297912598,0.22493335604667664
1743758133.998,-9.327555656433105,2.837989091873169,0.15793193876743317
1743758133.998,-9.370628356933594,2.8571321964263916,0.14836029708385468
1743758133.998,-9.265339851379395,2.8714897632598877,0.1914326548576355
1743758133.998,-9.370628356933594,2.8140599727630615,0.1914326548576355
1743758134.076,-9.4950590133667,2.833203077316284,0.16271774470806122
1743758134.076,-9.729564666748047,2.9145619869232178,0.0909305065870285
1743758134.076,-9.614705085754395,2.9815635681152344,0.13878867030143738
1743758134.076,-9.56684684753418,2.9624202251434326,0.14836029708385468
1743758134.155,-9.71520709991455,2.9815635681152344,0.2105759084224701
1743758134.155,-9.576417922973633,3.0102784633636475,0.3206496834754944
1743758134.155,-9.576417922973633,2.9767775535583496,0.18664683401584625
1743758134.155,-9.638633728027344,2.8906328678131104,0.22014755010604858
1743758134.234,-9.605133056640625,2.8762755393981934,0.181861013174057
1743758134.234,-9.528559684753418,2.8284173011779785,0.08135887235403061
1743758134.234,-9.404129028320312,2.866703987121582,0.13400284945964813
1743758134.234,-9.39934253692627,2.9049904346466064,0.1005021408200264
1743758134.312,-9.169623374938965,2.895418882369995,0.24886244535446167
1743758134.312,-9.337127685546875,2.9145619869232178,0.1914326548576355
1743758134.312,-9.341913223266602,2.8475606441497803,0.2727915346622467
1743758134.312,-9.475915908813477,2.8762755393981934,0.2010042816400528
1743758134.391,-9.38498592376709,2.9049904346466064,0.23929080367088318
1743758134.391,-9.380199432373047,2.938491106033325,0.22493335604667664
1743758134.391,-9.624276161193848,2.9672060012817383,0.04307234659790993
1743758134.391,-9.442415237426758,2.938491106033325,0.17707519233226776
1743758134.47,-9.672134399414062,2.8571321964263916,0.08614469319581985
1743758134.47,-9.681706428527832,2.909776210784912,0.16750356554985046
1743758134.47,-9.542917251586914,2.8858470916748047,0.19621846079826355
1743758134.47,-9.614705085754395,2.8571321964263916,0.14357449114322662
1743758134.548,-9.56684684753418,2.8475606441497803,0.2727915346622467
1743758134.548,-9.595561027526855,2.8858470916748047,0.22971917688846588
1743758134.548,-9.413700103759766,2.881061315536499,0.19621846079826355
1743758134.548,-9.64341926574707,2.8906328678131104,0.06700142472982407
1743758134.627,-9.447200775146484,2.8284173011779785,0.21536172926425934
1743758134.627,-9.490273475646973,2.7997024059295654,0.08135887235403061
1743758134.627,-9.456772804260254,2.924133777618408,0.2010042816400528
1743758134.627,-9.528559684753418,2.8619179725646973,0.21536172926425934
1743758134.706,-9.504631042480469,2.881061315536499,0.2105759084224701
1743758134.706,-9.4950590133667,2.8762755393981934,0.2919347882270813
1743758134.706,-9.533346176147461,2.8427748680114746,0.27757734060287476
1743758134.706,-9.442415237426758,2.8714897632598877,0.2632198929786682
1743758134.785,-9.466344833374023,2.833203077316284,0.2010042816400528
1743758134.785,-9.475915908813477,2.852346420288086,0.17707519233226776
1743758134.785,-9.619490623474121,2.804488182067871,0.06221561133861542
1743758134.785,-9.4950590133667,2.823631525039673,0.11485958844423294
1743758134.864,-9.576417922973633,2.790130853652954,0.1005021408200264
1743758134.864,-9.55727481842041,2.8140599727630615,0.13400284945964813
1743758134.864,-9.480701446533203,2.7949166297912598,0.26800569891929626
1743758134.864,-9.523774147033691,2.761415958404541,0.24886244535446167
1743758134.942,-9.562060356140137,2.866703987121582,0.28714898228645325
1743758134.942,-9.552489280700684,2.852346420288086,0.25843408703804016
1743758134.942,-9.475915908813477,2.8906328678131104,0.22971917688846588
1743758134.942,-9.571632385253906,2.852346420288086,0.1005021408200264
1743758135.021,-9.600347518920898,2.8714897632598877,0.1722893863916397
1743758135.021,-9.528559684753418,2.8284173011779785,0.2010042816400528
1743758135.021,-9.389771461486816,2.7662017345428467,0.24407662451267242
1743758135.021,-9.480701446533203,2.732701063156128,0.22014755010604858
1743758135.1,-9.490273475646973,2.775773286819458,0.29672059416770935
1743758135.1,-9.490273475646973,2.7422726154327393,0.2010042816400528
1743758135.1,-9.418486595153809,2.833203077316284,0.16750356554985046
1743758135.1,-9.509416580200195,2.881061315536499,0.22493335604667664
1743758135.178,-9.475915908813477,2.7997024059295654,0.26800569891929626
1743758135.178,-9.538131713867188,2.804488182067871,0.19621846079826355
1743758135.178,-9.447200775146484,2.790130853652954,0.23450499773025513
1743758135.178,-9.428057670593262,2.837989091873169,0.2823631465435028
1743758135.257,-9.408914566040039,2.9145619869232178,0.23450499773025513
1743758135.257,-9.533346176147461,2.9815635681152344,0.10528795421123505
1743758135.257,-9.581204414367676,2.852346420288086,0.13400284945964813
1743758135.257,-9.585989952087402,2.8427748680114746,0.11485958844423294
1743758135.335,-9.605133056640625,2.747058391571045,0.23929080367088318
1743758135.335,-9.518988609313965,2.8571321964263916,0.23929080367088318
1743758135.335,-9.562060356140137,2.8906328678131104,0.1914326548576355
1743758135.335,-9.638633728027344,2.8906328678131104,0.0047858161851763725
1743758135.414,-9.547703742980957,2.9049904346466064,0.09571632742881775
1743758135.414,-9.600347518920898,2.8475606441497803,0.12921704351902008
1743758135.414,-9.609918594360352,2.7374868392944336,0.21536172926425934
1743758135.414,-9.624276161193848,2.6944146156311035,0.34936457872390747
1743758135.493,-9.585989952087402,2.7566301822662354,0.26800569891929626
1743758135.493,-9.456772804260254,2.790130853652954,0.19621846079826355
1743758135.493,-9.485487937927246,2.8284173011779785,0.15793193876743317
1743758135.493,-9.46155834197998,2.866703987121582,0.18664683401584625
1743758135.572,-9.571632385253906,2.775773286819458,0.08614469319581985
1743758135.572,-9.47113037109375,2.7853450775146484,0.22493335604667664
1743758135.572,-9.442415237426758,2.7853450775146484,0.21536172926425934
1743758135.572,-9.447200775146484,2.7087719440460205,0.19621846079826355
1743758135.651,-9.490273475646973,2.7518444061279297,0.2105759084224701
1743758135.651,-9.432844161987305,2.761415958404541,0.15793193876743317
1743758135.651,-9.408914566040039,2.7518444061279297,0.15793193876743317
1743758135.651,-9.490273475646973,2.809274196624756,0.2105759084224701
1743758135.73,-9.518988609313965,2.7853450775146484,0.1722893863916397
1743758135.73,-9.581204414367676,2.833203077316284,0.17707519233226776
1743758135.73,-9.514202117919922,2.909776210784912,0.14836029708385468
1743758135.73,-9.581204414367676,2.928919553756714,0.18664683401584625
1743758135.808,-9.562060356140137,2.895418882369995,0.22493335604667664
1743758135.808,-9.633848190307617,2.895418882369995,0.12921704351902008
1743758135.808,-9.763065338134766,2.9193477630615234,0.10528795421123505
1743758135.808,-9.55727481842041,2.9480626583099365,0.1005021408200264
1743758135.887,-9.64341926574707,2.909776210784912,0.009571632370352745
1743758135.887,-9.504631042480469,2.943276882171631,0.10528795421123505
1743758135.887,-9.408914566040039,2.928919553756714,0.047858163714408875
1743758135.887,-9.475915908813477,2.9337053298950195,0.05264397710561752
1743758135.965,-9.332341194152832,2.957634449005127,0.23929080367088318
1743758135.965,-9.562060356140137,2.881061315536499,0.028714897111058235
1743758135.965,-9.298840522766113,2.8475606441497803,0.21536172926425934
1743758135.965,-9.423272132873535,2.8619179725646973,0.10528795421123505
1743758136.044,-9.317984580993652,2.837989091873169,0.05742979422211647
1743758136.044,-9.47113037109375,2.8762755393981934,0.014357448555529118
1743758136.044,-9.538131713867188,2.8475606441497803,0.0047858161851763725
1743758136.044,-9.514202117919922,2.8858470916748047,0.009571632370352745
1743758136.123,-9.64341926574707,2.8906328678131104,0.009571632370352745
1743758136.123,-9.547703742980957,2.9624202251434326,0.11485958844423294
1743758136.123,-9.672134399414062,2.833203077316284,0.13400284945964813
1743758136.123,-9.619490623474121,2.7662017345428467,0.15793193876743317
1743758136.202,-9.667348861694336,2.8140599727630615,0.181861013174057
1743758136.202,-9.562060356140137,2.790130853652954,0.06700142472982407
1743758136.202,-9.562060356140137,2.7853450775146484,0.047858163714408875
1743758136.202,-9.542917251586914,2.7997024059295654,0.014357448555529118
1743758136.281,-9.528559684753418,2.8475606441497803,-0.03828652948141098
1743758136.281,-9.571632385253906,2.8714897632598877,-0.028714897111058235
1743758136.281,-9.499845504760742,2.837989091873169,0.07657305896282196
1743758136.281,-9.542917251586914,2.909776210784912,0.11964540183544159
1743758136.36,-9.648205757141113,2.924133777618408,0.07178724557161331
1743758136.36,-9.447200775146484,2.943276882171631,0.12921704351902008
1743758136.36,-9.4950590133667,2.8858470916748047,0.11485958844423294
1743758136.36,-9.451987266540527,2.895418882369995,0.10528795421123505
1743758136.438,-9.562060356140137,2.8619179725646973,0.07657305896282196
1743758136.438,-9.404129028320312,2.852346420288086,0.06700142472982407
1743758136.438,-9.576417922973633,2.852346420288086,-0.009571632370352745
1743758136.438,-9.346698760986328,2.866703987121582,0.07657305896282196
1743758136.517,-9.562060356140137,2.8475606441497803,-0.06700142472982407
1743758136.517,-9.504631042480469,2.852346420288086,0.04307234659790993
1743758136.517,-9.552489280700684,2.8858470916748047,-0.01914326474070549
1743758136.517,-9.466344833374023,2.866703987121582,0.0047858161851763725
1743758136.595,-9.547703742980957,2.9624202251434326,0.028714897111058235
1743758136.595,-9.514202117919922,2.9815635681152344,0.03828652948141098
1743758136.595,-9.4950590133667,2.938491106033325,0.023929081857204437
1743758136.595,-9.447200775146484,2.938491106033325,0.08135887235403061
1743758136.674,-9.528559684753418,2.9145619869232178,-0.028714897111058235
1743758136.674,-9.437629699707031,2.938491106033325,0
1743758136.674,-9.380199432373047,2.833203077316284,-0.06700142472982407
1743758136.674,-9.39934253692627,2.8906328678131104,-0.06221561133861542
1743758136.753,-9.317984580993652,2.8475606441497803,-0.047858163714408875
1743758136.753,-9.370628356933594,2.809274196624756,-0.023929081857204437
1743758136.753,-9.36584186553955,2.823631525039673,0.06221561133861542
1743758136.753,-9.4950590133667,2.8284173011779785,0.06700142472982407
1743758136.832,-9.485487937927246,2.8762755393981934,0.07178724557161331
1743758136.832,-9.552489280700684,2.900204658508301,0.05742979422211647
1743758136.832,-9.533346176147461,2.9193477630615234,0.06221561133861542
1743758136.832,-9.676919937133789,2.943276882171631,0.04307234659790993
1743758136.911,-9.533346176147461,2.866703987121582,0.06221561133861542
1743758136.911,-9.74870777130127,2.866703987121582,-0.009571632370352745
1743758136.911,-9.676919937133789,2.8619179725646973,0.08614469319581985
1743758136.911,-9.619490623474121,2.909776210784912,0.023929081857204437
1743758136.99,-9.547703742980957,2.9767775535583496,0.03828652948141098
1743758136.99,-9.614705085754395,2.9959208965301514,-0.014357448555529118
1743758136.99,-9.590775489807129,3.0677082538604736,-0.047858163714408875
1743758136.99,-9.38498592376709,3.1490671634674072,-0.023929081857204437
1743758137.068,-9.413700103759766,3.16821026802063,-0.06700142472982407
1743758137.068,-9.394556999206543,3.1873536109924316,0
1743758137.068,-9.341913223266602,3.163424491882324,-0.07657305896282196
1743758137.068,-9.183980941772461,3.273498296737671,-0.09571632742881775
1743758137.147,-9.169623374938965,3.3261423110961914,-0.1005021408200264
1743758137.147,-9.164837837219238,3.2974274158477783,-0.01914326474070549
1743758137.147,-9.19355297088623,3.2160685062408447,0.0047858161851763725
1743758137.147,-9.183980941772461,3.1299238204956055,0.09571632742881775
1743758137.225,-9.31319808959961,2.9815635681152344,0.17707519233226776
1743758137.225,-9.423272132873535,2.971991777420044,0.14357449114322662
1743758137.225,-9.418486595153809,2.9337053298950195,0.13400284945964813
1743758137.225,-9.46155834197998,2.924133777618408,0.03350071236491203
1743758137.304,-9.552489280700684,2.9337053298950195,0.03350071236491203
1743758137.304,-9.518988609313965,2.8762755393981934,0.047858163714408875
1743758137.304,-9.619490623474121,2.8714897632598877,0.01914326474070549
1743758137.304,-9.538131713867188,2.8619179725646973,0.08135887235403061
1743758137.383,-9.648205757141113,2.837989091873169,0.03350071236491203
1743758137.383,-9.648205757141113,2.938491106033325,-0.028714897111058235
1743758137.383,-9.562060356140137,2.9337053298950195,-0.08135887235403061
1743758137.383,-9.648205757141113,2.9049904346466064,-0.014357448555529118
1743758137.461,-9.65299129486084,2.837989091873169,-0.014357448555529118
1743758137.461,-9.686491966247559,2.8762755393981934,0.05264397710561752
1743758137.461,-9.624276161193848,2.900204658508301,-0.04307234659790993
1743758137.461,-9.581204414367676,2.9145619869232178,0.014357448555529118
1743758137.54,-9.629061698913574,2.900204658508301,-0.08614469319581985
1743758137.54,-9.490273475646973,2.8714897632598877,-0.07178724557161331
1743758137.54,-9.576417922973633,2.8762755393981934,-0.0047858161851763725
1743758137.54,-9.485487937927246,2.804488182067871,0.0047858161851763725
1743758137.619,-9.55727481842041,2.8427748680114746,-0.028714897111058235
1743758137.619,-9.456772804260254,2.9337053298950195,-0.028714897111058235
1743758137.619,-9.423272132873535,3.015064239501953,-0.07657305896282196
1743758137.619,-9.418486595153809,3.105994701385498,-0.07657305896282196
1743758137.698,-9.605133056640625,3.1107804775238037,-0.023929081857204437
1743758137.698,-9.533346176147461,3.077279806137085,0.009571632370352745
1743758137.698,-9.547703742980957,3.0724940299987793,0.028714897111058235
1743758137.698,-9.55727481842041,3.1012089252471924,0.01914326474070549
1743758137.777,-9.528559684753418,3.0533506870269775,0.08614469319581985
1743758137.777,-9.39934253692627,3.000706672668457,0.023929081857204437
1743758137.777,-9.38498592376709,3.0054924488067627,-0.04307234659790993
1743758137.777,-9.380199432373047,3.000706672668457,-0.05264397710561752
1743758137.856,-9.356270790100098,2.938491106033325,0
1743758137.856,-9.332341194152832,2.9767775535583496,-0.05742979422211647
1743758137.856,-9.408914566040039,2.9480626583099365,-0.05742979422211647
1743758137.856,-9.442415237426758,2.900204658508301,-0.028714897111058235
1743758137.934,-9.437629699707031,3.019850015640259,0
1743758137.934,-9.47113037109375,2.9815635681152344,0.01914326474070549
1743758137.934,-9.499845504760742,3.0389933586120605,0.01914326474070549
1743758137.934,-9.547703742980957,3.0677082538604736,-0.03350071236491203
1743758138.013,-9.475915908813477,3.091637372970581,0.014357448555529118
1743758138.013,-9.480701446533203,2.9767775535583496,-0.014357448555529118
1743758138.013,-9.418486595153809,3.02942156791687,0.01914326474070549
1743758138.013,-9.394556999206543,2.9624202251434326,-0.014357448555529118
1743758138.091,-9.31319808959961,2.9145619869232178,-0.04307234659790993
1743758138.091,-9.38498592376709,2.8762755393981934,-0.01914326474070549
1743758138.091,-9.480701446533203,2.866703987121582,-0.04307234659790993
1743758138.091,-9.538131713867188,2.8571321964263916,-0.028714897111058235
1743758138.17,-9.657776832580566,2.8714897632598877,-0.0047858161851763725
1743758138.17,-9.667348861694336,2.9337053298950195,0.08135887235403061
1743758138.17,-9.629061698913574,3.015064239501953,0.06700142472982407
1743758138.17,-9.629061698913574,2.9767775535583496,0.09571632742881775
1743758138.249,-9.681706428527832,2.9049904346466064,0.06221561133861542
1743758138.249,-9.595561027526855,2.8571321964263916,0.014357448555529118
1743758138.249,-9.533346176147461,2.866703987121582,-0.06221561133861542
1743758138.249,-9.55727481842041,2.895418882369995,-0.03350071236491203
1743758138.328,-9.361056327819824,2.818845748901367,-0.03350071236491203
1743758138.328,-9.456772804260254,2.8571321964263916,-0.08135887235403061
1743758138.328,-9.36584186553955,2.7709875106811523,-0.03350071236491203
1743758138.328,-9.514202117919922,2.7374868392944336,-0.014357448555529118
1743758138.407,-9.485487937927246,2.7279152870178223,0.10528795421123505
1743758138.407,-9.624276161193848,2.7374868392944336,0.09571632742881775
1743758138.407,-9.571632385253906,2.823631525039673,0.13878867030143738
1743758138.407,-9.585989952087402,2.7709875106811523,0.06221561133861542
1743758138.486,-9.509416580200195,2.747058391571045,0.13878867030143738
1743758138.486,-9.518988609313965,2.7518444061279297,0.1005021408200264
1743758138.486,-9.533346176147461,2.713557720184326,0.05264397710561752
1743758138.486,-9.547703742980957,2.7853450775146484,0.01914326474070549
1743758138.564,-9.619490623474121,2.7853450775146484,-0.06221561133861542
1743758138.564,-9.447200775146484,2.809274196624756,-0.03350071236491203
1743758138.564,-9.466344833374023,2.8284173011779785,0.028714897111058235
1743758138.564,-9.562060356140137,2.833203077316284,0.028714897111058235
1743758138.643,-9.576417922973633,2.8619179725646973,0.04307234659790993
1743758138.643,-9.518988609313965,2.895418882369995,0.09571632742881775
1743758138.643,-9.571632385253906,2.881061315536499,0.047858163714408875
1743758138.643,-9.581204414367676,2.8571321964263916,0.11007377505302429
1743758138.721,-9.614705085754395,2.823631525039673,0.14357449114322662
1743758138.721,-9.466344833374023,2.7709875106811523,0.14836029708385468
1743758138.721,-9.466344833374023,2.6656997203826904,0.11485958844423294
1743758138.721,-9.533346176147461,2.7422726154327393,0.08135887235403061
1743758138.8,-9.590775489807129,2.761415958404541,-0.009571632370352745
1743758138.8,-9.423272132873535,2.6896286010742188,0
1743758138.8,-9.485487937927246,2.718343496322632,0.047858163714408875
1743758138.8,-9.609918594360352,2.761415958404541,0.13878867030143738
1743758138.879,-9.56684684753418,2.699200391769409,0.1005021408200264
1743758138.879,-9.523774147033691,2.7087719440460205,0.09571632742881775
1743758138.879,-9.528559684753418,2.7231295108795166,0.15793193876743317
1743758138.879,-9.533346176147461,2.7279152870178223,0.181861013174057
1743758138.958,-9.4950590133667,2.7374868392944336,0.12921704351902008
1743758138.958,-9.428057670593262,2.775773286819458,0.11007377505302429
1743758138.958,-9.47113037109375,2.8284173011779785,0.16750356554985046
1743758138.958,-9.47113037109375,2.761415958404541,0.2105759084224701
1743758139.037,-9.432844161987305,2.7279152870178223,0.1914326548576355
1743758139.037,-9.523774147033691,2.6896286010742188,0.16750356554985046
1743758139.037,-9.504631042480469,2.718343496322632,0.2105759084224701
1743758139.037,-9.609918594360352,2.713557720184326,0.13400284945964813
1743758139.116,-9.600347518920898,2.7662017345428467,0.11007377505302429
1743758139.116,-9.629061698913574,2.8284173011779785,0.09571632742881775
1743758139.116,-9.605133056640625,2.7279152870178223,0.08135887235403061
1743758139.116,-9.55727481842041,2.699200391769409,0.16750356554985046
1743758139.194,-9.65299129486084,2.7374868392944336,0.15314611792564392
1743758139.194,-9.705635070800781,2.699200391769409,0.14836029708385468
1743758139.194,-9.585989952087402,2.7997024059295654,0.11485958844423294
1743758139.194,-9.605133056640625,2.775773286819458,0.1005021408200264
1743758139.273,-9.562060356140137,2.732701063156128,0.21536172926425934
1743758139.273,-9.609918594360352,2.7087719440460205,0.12443122267723083
1743758139.273,-9.485487937927246,2.6752712726593018,0.22493335604667664
1743758139.273,-9.533346176147461,2.7374868392944336,0.15314611792564392
1743758139.351,-9.4950590133667,2.6656997203826904,0.16271774470806122
1743758139.351,-9.514202117919922,2.6800570487976074,0.07657305896282196
1743758139.351,-9.509416580200195,2.6513421535491943,0.08614469319581985
1743758139.351,-9.518988609313965,2.6656997203826904,0.06700142472982407
1743758139.43,-9.542917251586914,2.6800570487976074,0.028714897111058235
1743758139.43,-9.533346176147461,2.718343496322632,0.07178724557161331
1743758139.43,-9.562060356140137,2.7949166297912598,0.05742979422211647
1743758139.43,-9.614705085754395,2.7566301822662354,0.1005021408200264
1743758139.509,-9.633848190307617,2.747058391571045,0.16750356554985046
1743758139.509,-9.547703742980957,2.823631525039673,0.12921704351902008
1743758139.509,-9.595561027526855,2.7805593013763428,0.15314611792564392
1743758139.509,-9.64341926574707,2.703986167907715,0.05742979422211647
1743758139.587,-9.485487937927246,2.761415958404541,0.11485958844423294
1743758139.587,-9.451987266540527,2.7374868392944336,0.06221561133861542
1743758139.587,-9.528559684753418,2.6465563774108887,0.14357449114322662
1743758139.587,-9.538131713867188,2.6513421535491943,0.0909305065870285
1743758139.666,-9.4950590133667,2.6226272583007812,0.07657305896282196
1743758139.666,-9.499845504760742,2.627413034439087,0.06221561133861542
1743758139.666,-9.595561027526855,2.7279152870178223,0.1005021408200264
1743758139.666,-9.648205757141113,2.732701063156128,0.07178724557161331
1743758139.745,-9.657776832580566,2.7709875106811523,0.16271774470806122
1743758139.745,-9.638633728027344,2.761415958404541,0.14357449114322662
1743758139.745,-9.562060356140137,2.9049904346466064,0.15793193876743317
1743758139.745,-9.38498592376709,2.909776210784912,0.181861013174057
1743758139.824,-9.394556999206543,2.8140599727630615,0.15314611792564392
1743758139.824,-9.351485252380371,2.7949166297912598,0.07178724557161331
1743758139.824,-9.332341194152832,2.7422726154327393,0.04307234659790993
1743758139.824,-9.322770118713379,2.703986167907715,0.05742979422211647
1743758139.903,-9.418486595153809,2.550840139389038,0.07178724557161331
1743758139.903,-9.538131713867188,2.507767677307129,0.05264397710561752
1743758139.903,-9.609918594360352,2.579555034637451,0.11007377505302429
1743758139.903,-9.64341926574707,2.5747690200805664,0.13400284945964813
1743758139.981,-9.868352890014648,2.5412683486938477,0.11007377505302429
1743758139.981,-10.002355575561523,2.5699832439422607,0.11964540183544159
1743758139.981,-9.782208442687988,2.6034839153289795,0.1005021408200264
1743758139.981,-9.89706802368164,2.565197467803955,0.09571632742881775
1743758140.06,-9.729564666748047,2.479052782058716,0.16271774470806122
1743758140.06,-9.777422904968262,2.4072654247283936,0.028714897111058235
1743758140.06,-9.657776832580566,2.416837215423584,0
1743758140.06,-9.504631042480469,2.488624334335327,-0.01914326474070549
1743758140.139,-9.475915908813477,2.493410348892212,-0.0909305065870285
1743758140.139,-9.466344833374023,2.5316967964172363,-0.10528795421123505
1743758140.139,-9.413700103759766,2.5269110202789307,-0.11485958844423294
1743758140.139,-9.466344833374023,2.670485496520996,-0.14836029708385468
1743758140.217,-9.432844161987305,2.6321988105773926,-0.01914326474070549
1743758140.217,-9.614705085754395,2.703986167907715,0.03828652948141098
1743758140.217,-9.676919937133789,2.6944146156311035,0.023929081857204437
1743758140.217,-9.729564666748047,2.732701063156128,-0.03828652948141098
1743758140.296,-9.877924919128418,2.7231295108795166,-0.16271774470806122
1743758140.296,-9.906639099121094,2.8762755393981934,-0.2823631465435028
1743758140.296,-9.758278846740723,2.9959208965301514,-0.31586387753486633
1743758140.296,-9.791779518127441,3.0246357917785645,-0.382865309715271
1743758140.375,-9.719992637634277,3.02942156791687,-0.3206496834754944
1743758140.375,-9.523774147033691,3.091637372970581,-0.3110780417919159
1743758140.375,-9.380199432373047,3.2064969539642334,-0.21536172926425934
1743758140.375,-9.380199432373047,3.273498296737671,-0.2632198929786682
1743758140.454,-9.346698760986328,3.3357138633728027,-0.11007377505302429
1743758140.454,-9.37541389465332,3.3357138633728027,-0.15793193876743317
1743758140.454,-9.361056327819824,3.364428758621216,-0.1914326548576355
1743758140.454,-9.274911880493164,3.3548572063446045,-0.15793193876743317
1743758140.533,-9.22705364227295,3.378786325454712,-0.16271774470806122
1743758140.533,-9.203125,3.4122869968414307,-0.1722893863916397
1743758140.533,-9.198338508605957,3.2687125205993652,-0.22014755010604858
1743758140.533,-9.198338508605957,3.316570520401001,-0.22971917688846588
1743758140.611,-9.22705364227295,3.2495691776275635,-0.181861013174057
1743758140.611,-9.231839179992676,3.3548572063446045,-0.22493335604667664
1743758140.611,-9.241411209106445,3.3117847442626953,-0.14357449114322662
1743758140.611,-9.317984580993652,3.3069989681243896,-0.08135887235403061
1743758140.69,-9.284482955932617,3.3117847442626953,-0.04307234659790993
1743758140.69,-9.423272132873535,3.3404996395111084,-0.1005021408200264
1743758140.69,-9.380199432373047,3.2926416397094727,0.05742979422211647
1743758140.69,-9.562060356140137,3.225640058517456,-0.10528795421123505
1743758140.769,-9.480701446533203,3.1442811489105225,-0.11964540183544159
1743758140.769,-9.432844161987305,3.015064239501953,-0.10528795421123505
1743758140.769,-9.542917251586914,3.0102784633636475,-0.15314611792564392
1743758140.769,-9.404129028320312,2.9672060012817383,-0.04307234659790993
1743758140.847,-9.423272132873535,2.895418882369995,-0.11485958844423294
1743758140.847,-9.298840522766113,2.7805593013763428,-0.08614469319581985
1743758140.847,-9.55727481842041,2.8475606441497803,-0.19621846079826355
1743758140.847,-9.36584186553955,2.8140599727630615,-0.11485958844423294
1743758140.926,-9.423272132873535,2.7805593013763428,-0.14357449114322662
1743758140.926,-9.39934253692627,2.761415958404541,-0.05264397710561752
1743758140.926,-9.562060356140137,2.818845748901367,-0.028714897111058235
1743758140.926,-9.633848190307617,2.818845748901367,-0.12921704351902008
1743758141.005,-9.413700103759766,2.9145619869232178,-0.0909305065870285
1743758141.005,-9.581204414367676,2.866703987121582,-0.11964540183544159
1743758141.005,-9.633848190307617,2.943276882171631,-0.06221561133861542
1743758141.005,-9.585989952087402,2.8284173011779785,-0.04307234659790993
1743758141.084,-9.509416580200195,2.833203077316284,-0.09571632742881775
1743758141.084,-9.528559684753418,2.7853450775146484,0.01914326474070549
1743758141.084,-9.676919937133789,2.823631525039673,-0.014357448555529118
1743758141.084,-9.451987266540527,2.837989091873169,0
1743758141.163,-9.600347518920898,2.8762755393981934,-0.03350071236491203
1743758141.163,-9.576417922973633,2.7949166297912598,-0.009571632370352745
1743758141.163,-9.64341926574707,2.7997024059295654,-0.05264397710561752
1743758141.163,-9.480701446533203,2.900204658508301,0.014357448555529118
1743758141.241,-9.562060356140137,2.852346420288086,-0.0047858161851763725
1743758141.241,-9.600347518920898,2.900204658508301,-0.009571632370352745
1743758141.241,-9.475915908813477,2.8762755393981934,0.047858163714408875
1743758141.241,-9.629061698913574,2.8906328678131104,0
1743758141.32,-9.523774147033691,2.804488182067871,0.023929081857204437
1743758141.32,-9.686491966247559,2.809274196624756,-0.047858163714408875
1743758141.32,-9.509416580200195,2.9049904346466064,0.0047858161851763725
1743758141.32,-9.605133056640625,2.8284173011779785,-0.07178724557161331
1743758141.399,-9.523774147033691,2.881061315536499,-0.06700142472982407
1743758141.399,-9.456772804260254,2.8140599727630615,-0.05264397710561752
1743758141.399,-9.55727481842041,2.7422726154327393,-0.11964540183544159
1743758141.399,-9.370628356933594,2.7805593013763428,0.028714897111058235
1743758141.477,-9.614705085754395,2.7805593013763428,-0.11007377505302429
1743758141.477,-9.4950590133667,2.747058391571045,-0.07178724557161331
1743758141.477,-9.552489280700684,2.7662017345428467,-0.06221561133861542
1743758141.477,-9.361056327819824,2.7709875106811523,0.06221561133861542
1743758141.556,-9.590775489807129,2.699200391769409,-0.12443122267723083
1743758141.556,-9.562060356140137,2.7231295108795166,-0.028714897111058235
1743758141.556,-9.432844161987305,2.761415958404541,-0.04307234659790993
1743758141.556,-9.451987266540527,2.818845748901367,-0.14836029708385468
1743758141.635,-9.547703742980957,2.7709875106811523,-0.06700142472982407
1743758141.635,-9.648205757141113,2.790130853652954,-0.07178724557161331
1743758141.635,-9.65299129486084,2.8284173011779785,-0.07178724557161331
1743758141.635,-9.619490623474121,2.881061315536499,-0.06221561133861542
1743758141.713,-9.74870777130127,2.9193477630615234,0.023929081857204437
1743758141.713,-9.4950590133667,2.943276882171631,0.023929081857204437
1743758141.713,-9.638633728027344,2.837989091873169,0.01914326474070549
1743758141.713,-9.585989952087402,2.8140599727630615,0.047858163714408875
1743758141.792,-9.609918594360352,2.7709875106811523,-0.03350071236491203
1743758141.792,-9.4950590133667,2.732701063156128,-0.04307234659790993
1743758141.792,-9.585989952087402,2.732701063156128,-0.10528795421123505
1743758141.792,-9.480701446533203,2.7566301822662354,-0.1005021408200264
1743758141.871,-9.490273475646973,2.670485496520996,-0.22014755010604858
1743758141.871,-9.480701446533203,2.7087719440460205,-0.11007377505302429
1743758141.871,-9.423272132873535,2.6609137058258057,0.01914326474070549
1743758141.871,-9.442415237426758,2.718343496322632,-0.03828652948141098
1743758141.95,-9.55727481842041,2.684842824935913,-0.01914326474070549
1743758141.95,-9.629061698913574,2.6944146156311035,-0.04307234659790993
1743758141.95,-9.514202117919922,2.761415958404541,-0.08135887235403061
1743758141.95,-9.509416580200195,2.809274196624756,-0.07657305896282196
1743758142.029,-9.562060356140137,2.823631525039673,-0.047858163714408875
1743758142.029,-9.475915908813477,2.718343496322632,-0.03828652948141098
1743758142.029,-9.590775489807129,2.718343496322632,-0.09571632742881775
1743758142.029,-9.466344833374023,2.732701063156128,0.014357448555529118
1743758142.107,-9.590775489807129,2.6944146156311035,-0.05742979422211647
1743758142.107,-9.39934253692627,2.775773286819458,-0.03350071236491203
1743758142.107,-9.562060356140137,2.7805593013763428,-0.10528795421123505
1743758142.107,-9.581204414367676,2.790130853652954,-0.0047858161851763725
1743758142.186,-9.605133056640625,2.747058391571045,-0.05742979422211647
1743758142.186,-9.480701446533203,2.718343496322632,0.014357448555529118
1743758142.186,-9.538131713867188,2.7374868392944336,-0.04307234659790993
1743758142.186,-9.672134399414062,2.7662017345428467,-0.028714897111058235
1743758142.265,-9.581204414367676,2.7422726154327393,-0.06221561133861542
1743758142.265,-9.590775489807129,2.7853450775146484,-0.15314611792564392
1743758142.265,-9.571632385253906,2.809274196624756,-0.15314611792564392
1743758142.265,-9.64341926574707,2.6944146156311035,-0.14836029708385468
1743758142.343,-9.451987266540527,2.718343496322632,-0.11485958844423294
1743758142.343,-9.456772804260254,2.6656997203826904,-0.181861013174057
1743758142.343,-9.547703742980957,2.641770601272583,-0.09571632742881775
1743758142.343,-9.65299129486084,2.6082699298858643,-0.11964540183544159
1743758142.422,-9.47113037109375,2.6896286010742188,-0.0909305065870285
1743758142.422,-9.619490623474121,2.747058391571045,-0.12921704351902008
1743758142.422,-9.485487937927246,2.747058391571045,-0.07657305896282196
1743758142.422,-9.667348861694336,2.6656997203826904,-0.20579010248184204
1743758142.501,-9.55727481842041,2.718343496322632,-0.047858163714408875
1743758142.501,-9.585989952087402,2.7087719440460205,-0.09571632742881775
1743758142.501,-9.571632385253906,2.7374868392944336,-0.06221561133861542
1743758142.501,-9.585989952087402,2.7087719440460205,-0.1005021408200264
1743758142.58,-9.514202117919922,2.703986167907715,-0.07178724557161331
1743758142.58,-9.485487937927246,2.790130853652954,-0.14357449114322662
1743758142.58,-9.523774147033691,2.713557720184326,-0.12443122267723083
1743758142.58,-9.614705085754395,2.7374868392944336,-0.07178724557161331
1743758142.659,-9.734350204467773,2.6321988105773926,-0.11964540183544159
1743758142.659,-9.705635070800781,2.7279152870178223,-0.12443122267723083
1743758142.659,-9.676919937133789,2.6896286010742188,-0.2010042816400528
1743758142.659,-9.609918594360352,2.6800570487976074,-0.05742979422211647
1743758142.737,-9.590775489807129,2.747058391571045,0
1743758142.737,-9.518988609313965,2.6034839153289795,0.047858163714408875
1743758142.737,-9.638633728027344,2.6369848251342773,-0.0047858161851763725
1743758142.737,-9.55727481842041,2.6513421535491943,-0.07178724557161331
1743758142.816,-9.437629699707031,2.718343496322632,-0.03350071236491203
1743758142.816,-9.55727481842041,2.6561279296875,-0.13400284945964813
1743758142.816,-9.56684684753418,2.713557720184326,-0.13400284945964813
1743758142.816,-9.528559684753418,2.6465563774108887,-0.04307234659790993
1743758142.895,-9.56684684753418,2.5556259155273438,0.0047858161851763725
1743758142.895,-9.571632385253906,2.6034839153289795,0.10528795421123505
1743758142.895,-9.614705085754395,2.593912363052368,0.10528795421123505
1743758142.895,-9.686491966247559,2.6034839153289795,-0.047858163714408875
1743758142.973,-9.55727481842041,2.6465563774108887,-0.0047858161851763725
1743758142.973,-9.56684684753418,2.703986167907715,-0.014357448555529118
1743758142.973,-9.614705085754395,2.713557720184326,-0.028714897111058235
1743758142.973,-9.633848190307617,2.7518444061279297,0.06700142472982407
1743758143.052,-9.629061698913574,2.670485496520996,0.047858163714408875
1743758143.052,-9.581204414367676,2.6226272583007812,0.05742979422211647
1743758143.052,-9.724778175354004,2.6752712726593018,0.05264397710561752
1743758143.052,-9.65299129486084,2.718343496322632,0.07657305896282196
1743758143.131,-9.480701446533203,2.713557720184326,-0.05742979422211647
1743758143.131,-9.475915908813477,2.6513421535491943,-0.0909305065870285
1743758143.131,-9.590775489807129,2.6800570487976074,0.014357448555529118
1743758143.131,-9.638633728027344,2.6034839153289795,-0.047858163714408875
1743758143.21,-9.499845504760742,2.5699832439422607,-0.009571632370352745
1743758143.21,-9.504631042480469,2.6609137058258057,0
1743758143.21,-9.528559684753418,2.6609137058258057,0.047858163714408875
1743758143.21,-9.629061698913574,2.627413034439087,-0.047858163714408875
1743758143.289,-9.633848190307617,2.6465563774108887,-0.06221561133861542
1743758143.289,-9.590775489807129,2.699200391769409,0.0047858161851763725
1743758143.289,-9.538131713867188,2.699200391769409,-0.0047858161851763725
1743758143.289,-9.614705085754395,2.670485496520996,-0.0047858161851763725
1743758143.367,-9.686491966247559,2.6656997203826904,0.01914326474070549
1743758143.367,-9.456772804260254,2.7231295108795166,0.009571632370352745
1743758143.367,-9.614705085754395,2.699200391769409,0.0047858161851763725
1743758143.367,-9.648205757141113,2.7374868392944336,0.08135887235403061
1743758143.446,-9.696063995361328,2.6752712726593018,-0.04307234659790993
1743758143.446,-9.538131713867188,2.7231295108795166,0.014357448555529118
1743758143.446,-9.609918594360352,2.7087719440460205,0.06221561133861542
1743758143.446,-9.595561027526855,2.699200391769409,0.12443122267723083
1743758143.525,-9.56684684753418,2.713557720184326,0.03828652948141098
1743758143.525,-9.4950590133667,2.7087719440460205,0.03350071236491203
1743758143.525,-9.562060356140137,2.7231295108795166,-0.047858163714408875
1743758143.525,-9.356270790100098,2.718343496322632,0.047858163714408875
1743758143.603,-9.485487937927246,2.684842824935913,-0.028714897111058235
1743758143.603,-9.533346176147461,2.732701063156128,-0.05742979422211647
1743758143.603,-9.562060356140137,2.7087719440460205,-0.028714897111058235
1743758143.603,-9.466344833374023,2.7374868392944336,-0.03350071236491203
1743758143.682,-9.552489280700684,2.7662017345428467,0.05742979422211647
1743758143.682,-9.686491966247559,2.718343496322632,0.07178724557161331
1743758143.682,-9.533346176147461,2.7231295108795166,0.05264397710561752
1743758143.682,-9.66256332397461,2.6944146156311035,0.023929081857204437
1743758143.761,-9.585989952087402,2.703986167907715,0.06700142472982407
1743758143.761,-9.74870777130127,2.7662017345428467,0.05742979422211647
1743758143.761,-9.518988609313965,2.7422726154327393,0.08614469319581985
1743758143.761,-9.571632385253906,2.809274196624756,0
1743758143.839,-9.504631042480469,2.7997024059295654,0.06221561133861542
1743758143.839,-9.571632385253906,2.747058391571045,-0.05264397710561752
1743758143.839,-9.451987266540527,2.775773286819458,0.0047858161851763725
1743758143.839,-9.46155834197998,2.790130853652954,0.01914326474070549
1743758143.918,-9.547703742980957,2.7566301822662354,0.03828652948141098
1743758143.918,-9.480701446533203,2.818845748901367,0.07657305896282196
1743758143.918,-9.480701446533203,2.8714897632598877,-0.009571632370352745
1743758143.918,-9.547703742980957,2.8619179725646973,-0.03828652948141098
1743758143.997,-9.585989952087402,2.8284173011779785,0.06700142472982407
1743758143.997,-9.657776832580566,2.7853450775146484,0.01914326474070549
1743758143.997,-9.66256332397461,2.7805593013763428,-0.023929081857204437
1743758143.997,-9.475915908813477,2.790130853652954,0.08614469319581985
1743758144.076,-9.518988609313965,2.747058391571045,0.06700142472982407
1743758144.076,-9.609918594360352,2.7997024059295654,0.05742979422211647
1743758144.076,-9.672134399414062,2.7805593013763428,0.03350071236491203
1743758144.076,-9.562060356140137,2.7231295108795166,0.05742979422211647
1743758144.155,-9.581204414367676,2.7662017345428467,0.06221561133861542
1743758144.155,-9.614705085754395,2.761415958404541,0.14357449114322662
1743758144.155,-9.538131713867188,2.7422726154327393,0.05742979422211647
1743758144.155,-9.552489280700684,2.699200391769409,0.0047858161851763725
1743758144.233,-9.528559684753418,2.6752712726593018,0.03350071236491203
1743758144.233,-9.55727481842041,2.6369848251342773,0.08135887235403061
1743758144.233,-9.55727481842041,2.684842824935913,0.023929081857204437
1743758144.233,-9.490273475646973,2.7087719440460205,0.14836029708385468
1743758144.312,-9.562060356140137,2.6321988105773926,0.01914326474070549
1743758144.312,-9.514202117919922,2.7279152870178223,-0.0047858161851763725
1743758144.312,-9.55727481842041,2.7422726154327393,0.014357448555529118
1743758144.312,-9.55727481842041,2.7662017345428467,0.023929081857204437
1743758144.391,-9.614705085754395,2.7949166297912598,-0.023929081857204437
1743758144.391,-9.547703742980957,2.7566301822662354,0.01914326474070549
1743758144.391,-9.624276161193848,2.7374868392944336,0.06700142472982407
1743758144.391,-9.423272132873535,2.775773286819458,0.10528795421123505
1743758144.469,-9.55727481842041,2.7231295108795166,0.03350071236491203
1743758144.469,-9.538131713867188,2.7087719440460205,0.05264397710561752
1743758144.469,-9.523774147033691,2.713557720184326,0.06700142472982407
1743758144.469,-9.418486595153809,2.703986167907715,0.07657305896282196
1743758144.548,-9.499845504760742,2.684842824935913,0.11964540183544159
1743758144.548,-9.523774147033691,2.718343496322632,0.11485958844423294
1743758144.548,-9.547703742980957,2.6944146156311035,0.014357448555529118
1743758144.548,-9.585989952087402,2.6944146156311035,-0.0047858161851763725
1743758144.627,-9.538131713867188,2.684842824935913,0.12443122267723083
1743758144.627,-9.571632385253906,2.6896286010742188,-0.014357448555529118
1743758144.627,-9.490273475646973,2.699200391769409,0.05264397710561752
1743758144.627,-9.576417922973633,2.718343496322632,0.06700142472982407
1743758144.706,-9.523774147033691,2.747058391571045,0.03350071236491203
1743758144.706,-9.648205757141113,2.7422726154327393,-0.009571632370352745
1743758144.706,-9.533346176147461,2.837989091873169,0.047858163714408875
1743758144.706,-9.47113037109375,2.8427748680114746,-0.014357448555529118
1743758144.785,-9.428057670593262,2.7853450775146484,0.05264397710561752
1743758144.785,-9.614705085754395,2.7279152870178223,0.08135887235403061
1743758144.785,-9.542917251586914,2.6944146156311035,0.047858163714408875
1743758144.785,-9.629061698913574,2.7518444061279297,0.01914326474070549
1743758144.863,-9.585989952087402,2.7662017345428467,0.11007377505302429
1743758144.863,-9.705635070800781,2.7853450775146484,0
1743758144.863,-9.609918594360352,2.775773286819458,0.06221561133861542
1743758144.863,-9.74870777130127,2.7422726154327393,0.07178724557161331
1743758144.942,-9.590775489807129,2.7231295108795166,0.11964540183544159
1743758144.942,-9.585989952087402,2.6944146156311035,0.1005021408200264
1743758144.942,-9.686491966247559,2.747058391571045,0.047858163714408875
1743758144.942,-9.552489280700684,2.7709875106811523,0.07657305896282196
1743758145.021,-9.547703742980957,2.7518444061279297,0
1743758145.021,-9.485487937927246,2.713557720184326,0.03828652948141098
1743758145.021,-9.480701446533203,2.713557720184326,0.06221561133861542
1743758145.021,-9.528559684753418,2.627413034439087,0.03350071236491203
1743758145.099,-9.542917251586914,2.703986167907715,0.09571632742881775
1743758145.099,-9.37541389465332,2.703986167907715,0.14357449114322662
1743758145.099,-9.346698760986328,2.61305570602417,0.1005021408200264
1743758145.099,-9.394556999206543,2.61305570602417,0.15314611792564392
1743758145.178,-9.581204414367676,2.6226272583007812,0.11007377505302429
1743758145.178,-9.624276161193848,2.790130853652954,-0.1005021408200264
1743758145.178,-9.624276161193848,2.852346420288086,-0.13878867030143738
1743758145.178,-9.504631042480469,2.928919553756714,-0.009571632370352745
1743758145.256,-9.56684684753418,2.9528486728668213,0.08614469319581985
1743758145.256,-9.648205757141113,2.9672060012817383,0.14836029708385468
1743758145.256,-9.763065338134766,2.9624202251434326,0.12443122267723083
1743758145.256,-9.705635070800781,3.02942156791687,0.20579010248184204
1743758145.335,-9.595561027526855,3.0389933586120605,0.19621846079826355
1743758145.335,-9.490273475646973,2.9145619869232178,0.27757734060287476
1743758145.335,-9.490273475646973,2.8762755393981934,0.22971917688846588
1743758145.335,-9.55727481842041,2.775773286819458,0.1005021408200264
1743758145.414,-9.562060356140137,2.7087719440460205,0.06700142472982407
1743758145.414,-9.432844161987305,2.6896286010742188,-0.014357448555529118
1743758145.414,-9.404129028320312,2.699200391769409,-0.09571632742881775
1743758145.414,-9.55727481842041,2.641770601272583,0.023929081857204437
1743758145.493,-9.614705085754395,2.6226272583007812,0.0047858161851763725
1743758145.493,-9.538131713867188,2.747058391571045,0.06221561133861542
1743758145.493,-9.609918594360352,2.7805593013763428,0.14836029708385468
1743758145.493,-9.691277503967285,2.852346420288086,0.11485958844423294
1743758145.572,-9.533346176147461,2.8762755393981934,0.19621846079826355
1743758145.572,-9.571632385253906,2.9193477630615234,0.1914326548576355
1743758145.572,-9.590775489807129,2.804488182067871,0.18664683401584625
1743758145.572,-9.562060356140137,2.761415958404541,0.11485958844423294
1743758145.651,-9.581204414367676,2.7949166297912598,0
1743758145.651,-9.451987266540527,2.790130853652954,0
1743758145.651,-9.408914566040039,2.7231295108795166,0.07178724557161331
1743758145.651,-9.418486595153809,2.6561279296875,0.03350071236491203
1743758145.729,-9.437629699707031,2.699200391769409,0.06700142472982407
1743758145.729,-9.485487937927246,2.6465563774108887,0.11485958844423294
1743758145.729,-9.600347518920898,2.6656997203826904,0.05742979422211647
1743758145.729,-9.542917251586914,2.7709875106811523,0.11485958844423294
1743758145.808,-9.490273475646973,2.9049904346466064,0.12921704351902008
1743758145.808,-9.523774147033691,2.9049904346466064,0.17707519233226776
1743758145.808,-9.4950590133667,2.9624202251434326,0.18664683401584625
1743758145.808,-9.327555656433105,2.7805593013763428,0.1722893863916397
1743758145.887,-9.260554313659668,2.7566301822662354,0.26800569891929626
1743758145.887,-9.46155834197998,2.6656997203826904,0.26800569891929626
1743758145.887,-9.815709114074707,2.7374868392944336,0.12443122267723083
1743758145.887,-10.011927604675293,2.8714897632598877,-0.11485958844423294
1743758145.965,-9.681706428527832,3.0054924488067627,-0.12443122267723083
1743758145.965,-9.614705085754395,3.1012089252471924,0.1914326548576355
1743758145.965,-9.772636413574219,3.015064239501953,0.23450499773025513
1743758145.965,-9.954497337341309,2.928919553756714,0.1914326548576355
1743758146.044,-9.997570037841797,2.895418882369995,0.24886244535446167
1743758146.044,-9.791779518127441,2.900204658508301,0.3110780417919159
1743758146.044,-9.394556999206543,2.895418882369995,0.382865309715271
1743758146.044,-9.466344833374023,2.8475606441497803,0.21536172926425934
1743758146.123,-9.27969741821289,2.823631525039673,0.13400284945964813
1743758146.123,-9.203125,2.7997024059295654,0.07178724557161331
1743758146.123,-9.136122703552246,2.790130853652954,0.014357448555529118
1743758146.123,-9.021263122558594,2.8619179725646973,-0.10528795421123505
1743758146.202,-8.729329109191895,2.924133777618408,-0.023929081857204437
1743758146.202,-8.662327766418457,2.7949166297912598,0.11485958844423294
1743758146.202,-9.016477584838867,2.670485496520996,0.24886244535446167
1743758146.202,-9.4950590133667,2.7853450775146484,0.2727915346622467
1743758146.281,-9.763065338134766,2.8619179725646973,0.12443122267723083
1743758146.281,-9.629061698913574,3.105994701385498,0.0047858161851763725
1743758146.281,-9.729564666748047,3.3261423110961914,0.1005021408200264
1743758146.281,-9.925783157348633,3.287855625152588,0.3206496834754944
1743758146.359,-10.07892894744873,3.0964231491088867,0.3445787727832794
1743758146.359,-10.160287857055664,3.0054924488067627,0.29672059416770935
1743758146.359,-9.868352890014648,2.7949166297912598,0.39722275733947754
1743758146.359,-9.696063995361328,2.6609137058258057,0.36850783228874207
1743758146.438,-9.552489280700684,2.5460541248321533,0.2823631465435028
1743758146.438,-9.480701446533203,2.5125534534454346,0.16271774470806122
1743758146.438,-9.499845504760742,2.368978977203369,0.08135887235403061
1743758146.438,-9.547703742980957,2.3163349628448486,-0.05264397710561752
1743758146.517,-9.442415237426758,2.340264081954956,-0.05264397710561752
1743758146.517,-9.389771461486816,2.402479648590088,-0.047858163714408875
1743758146.517,-9.322770118713379,2.522125244140625,-0.03828652948141098
1743758146.517,-9.408914566040039,2.7709875106811523,0.10528795421123505
1743758146.595,-9.542917251586914,3.000706672668457,0.21536172926425934
1743758146.595,-9.4950590133667,3.0964231491088867,0.07657305896282196
1743758146.595,-9.437629699707031,3.182567834854126,0.12443122267723083
1743758146.595,-9.432844161987305,3.0677082538604736,0.2105759084224701
1743758146.674,-9.533346176147461,3.0724940299987793,0.3732936680316925
1743758146.674,-9.514202117919922,2.9767775535583496,0.3732936680316925
1743758146.674,-9.638633728027344,2.9624202251434326,0.16750356554985046
1743758146.674,-9.4950590133667,2.837989091873169,-0.01914326474070549
1743758146.752,-9.447200775146484,2.732701063156128,-0.03828652948141098
1743758146.752,-9.475915908813477,2.5556259155273438,0.08135887235403061
1743758146.752,-9.56684684753418,2.6561279296875,0.11007377505302429
1743758146.752,-9.466344833374023,2.5316967964172363,0.27757734060287476
1743758146.831,-9.447200775146484,2.3498356342315674,0.30629223585128784
1743758146.831,-9.55727481842041,2.4503378868103027,0.34936457872390747
1743758146.831,-9.724778175354004,2.5173392295837402,0.40679436922073364
1743758146.831,-9.533346176147461,2.684842824935913,0.37807947397232056
1743758146.91,-9.509416580200195,2.881061315536499,0.25843408703804016
1743758146.91,-9.509416580200195,2.9145619869232178,0.15793193876743317
1743758146.91,-9.418486595153809,2.924133777618408,0.11485958844423294
1743758146.91,-9.351485252380371,2.713557720184326,0.19621846079826355
1743758146.989,-9.351485252380371,2.6609137058258057,0.2727915346622467
1743758146.989,-9.533346176147461,2.7709875106811523,0.2536482512950897
1743758146.989,-9.614705085754395,2.8714897632598877,0.1722893863916397
1743758146.989,-9.562060356140137,2.8284173011779785,0.08614469319581985
1743758147.068,-9.609918594360352,2.747058391571045,-0.023929081857204437
1743758147.068,-9.681706428527832,2.6656997203826904,0.03350071236491203
1743758147.068,-9.581204414367676,2.5699832439422607,0.26800569891929626
1743758147.068,-9.562060356140137,2.3785505294799805,0.1914326548576355
1743758147.147,-9.56684684753418,2.297191858291626,0.22014755010604858
1743758147.147,-9.648205757141113,2.3929080963134766,0.181861013174057
1743758147.147,-9.66256332397461,2.493410348892212,0.10528795421123505
1743758147.147,-9.691277503967285,2.641770601272583,-0.03350071236491203
1743758147.225,-9.65299129486084,2.718343496322632,0.15793193876743317
1743758147.225,-9.729564666748047,2.7422726154327393,0.22014755010604858
1743758147.225,-9.648205757141113,2.6609137058258057,0.181861013174057
1743758147.225,-9.672134399414062,2.6561279296875,0.3015064299106598
1743758147.304,-9.729564666748047,2.6513421535491943,0.3110780417919159
1743758147.304,-9.71520709991455,2.6656997203826904,0.16750356554985046
1743758147.304,-9.743921279907227,2.7566301822662354,0.12921704351902008
1743758147.304,-9.868352890014648,2.7518444061279297,-0.009571632370352745
1743758147.382,-9.81092357635498,2.7566301822662354,0.0047858161851763725
1743758147.382,-9.719992637634277,2.6800570487976074,0
1743758147.382,-9.633848190307617,2.6656997203826904,0.047858163714408875
1743758147.382,-9.600347518920898,2.7422726154327393,0.14836029708385468
1743758147.461,-9.480701446533203,2.823631525039673,0.21536172926425934
1743758147.461,-9.499845504760742,2.9815635681152344,0.07178724557161331
1743758147.461,-9.341913223266602,2.9767775535583496,0.09571632742881775
1743758147.461,-9.265339851379395,2.9624202251434326,0.10528795421123505
1743758147.54,-9.274911880493164,3.0054924488067627,0.11964540183544159
1743758147.54,-9.222268104553223,2.943276882171631,0.14357449114322662
1743758147.54,-9.317984580993652,2.837989091873169,0.1722893863916397
1743758147.54,-9.298840522766113,2.8571321964263916,0.12921704351902008
1743758147.619,-9.317984580993652,2.924133777618408,0.10528795421123505
1743758147.619,-9.418486595153809,2.8714897632598877,0.0909305065870285
1743758147.619,-9.380199432373047,2.8427748680114746,0.23450499773025513
1743758147.619,-9.447200775146484,2.7805593013763428,0.26800569891929626
1743758147.698,-9.595561027526855,2.7374868392944336,0.31586387753486633
1743758147.698,-9.533346176147461,2.7566301822662354,0.30629223585128784
1743758147.698,-9.533346176147461,2.6896286010742188,0.2919347882270813
1743758147.698,-9.585989952087402,2.7518444061279297,0.28714898228645325
1743758147.777,-9.562060356140137,2.8571321964263916,0.22493335604667664
1743758147.777,-9.538131713867188,2.9145619869232178,0.181861013174057
1743758147.777,-9.562060356140137,2.9049904346466064,0.19621846079826355
1743758147.777,-9.542917251586914,2.957634449005127,0.14836029708385468
1743758147.855,-9.55727481842041,2.9624202251434326,0.1914326548576355
1743758147.855,-9.562060356140137,3.000706672668457,0.15793193876743317
1743758147.855,-9.633848190307617,2.9672060012817383,0.24886244535446167
1743758147.855,-9.504631042480469,2.957634449005127,0.20579010248184204
1743758147.934,-9.585989952087402,2.9193477630615234,0.11964540183544159
1743758147.934,-9.514202117919922,2.9193477630615234,0.15314611792564392
1743758147.934,-9.56684684753418,2.7997024059295654,0.11485958844423294
1743758147.934,-9.394556999206543,2.8140599727630615,0.12443122267723083
1743758148.012,-9.528559684753418,2.837989091873169,0.05264397710561752
1743758148.012,-9.514202117919922,2.7997024059295654,0.07178724557161331
1743758148.012,-9.451987266540527,2.837989091873169,0.09571632742881775
1743758148.012,-9.480701446533203,2.909776210784912,0.13400284945964813
1743758148.091,-9.571632385253906,2.943276882171631,0.1722893863916397
1743758148.091,-9.614705085754395,2.9767775535583496,0.16271774470806122
1743758148.091,-9.504631042480469,2.98634934425354,0.22971917688846588
1743758148.091,-9.581204414367676,2.9911351203918457,0.24886244535446167
1743758148.17,-9.676919937133789,2.971991777420044,0.27757734060287476
1743758148.17,-9.657776832580566,2.943276882171631,0.22971917688846588
1743758148.17,-9.4950590133667,2.9145619869232178,0.181861013174057
1743758148.17,-9.456772804260254,2.866703987121582,0.15314611792564392
1743758148.249,-9.404129028320312,2.8140599727630615,0.01914326474070549
1743758148.249,-9.327555656433105,2.823631525039673,0.17707519233226776
1743758148.249,-9.322770118713379,2.809274196624756,0.05264397710561752
1743758148.249,-9.346698760986328,2.8762755393981934,0.014357448555529118
1743758148.328,-9.394556999206543,2.8858470916748047,0.12921704351902008
1743758148.328,-9.361056327819824,2.98634934425354,0.15314611792564392
1743758148.328,-9.361056327819824,2.98634934425354,0.23450499773025513
1743758148.328,-9.437629699707031,3.034207344055176,0.23450499773025513
1743758148.407,-9.552489280700684,3.058136463165283,0.30629223585128784
1743758148.407,-9.437629699707031,3.0246357917785645,0.2919347882270813
1743758148.407,-9.600347518920898,3.0054924488067627,0.22493335604667664
1743758148.407,-9.676919937133789,2.971991777420044,0.22493335604667664
1743758148.485,-9.619490623474121,2.900204658508301,0.22014755010604858
1743758148.485,-9.633848190307617,2.866703987121582,0.19621846079826355
1743758148.485,-9.772636413574219,2.7805593013763428,0.1914326548576355
1743758148.485,-9.8444242477417,2.8714897632598877,0.1722893863916397
1743758148.564,-9.791779518127441,2.8571321964263916,0.181861013174057
1743758148.564,-9.719992637634277,2.8858470916748047,0.2727915346622467
1743758148.564,-9.767850875854492,2.971991777420044,0.29672059416770935
1743758148.564,-9.648205757141113,2.943276882171631,0.23450499773025513
1743758148.642,-9.528559684753418,2.938491106033325,0.16750356554985046
1743758148.642,-9.341913223266602,2.957634449005127,0.14836029708385468
1743758148.642,-9.327555656433105,2.909776210784912,0.22493335604667664
1743758148.642,-9.37541389465332,2.8906328678131104,0.11007377505302429
1743758148.721,-9.231839179992676,2.8906328678131104,0.13400284945964813
1743758148.721,-9.356270790100098,2.900204658508301,0.11964540183544159
1743758148.721,-9.413700103759766,2.895418882369995,0.023929081857204437
1743758148.721,-9.475915908813477,2.9672060012817383,0.11007377505302429
1743758148.8,-9.337127685546875,2.9337053298950195,0.22014755010604858
1743758148.8,-9.418486595153809,2.9049904346466064,0.26800569891929626
1743758148.8,-9.4950590133667,2.852346420288086,0.3206496834754944
1743758148.8,-9.475915908813477,2.866703987121582,0.27757734060287476
1743758148.878,-9.389771461486816,2.895418882369995,0.3732936680316925
1743758148.878,-9.418486595153809,2.8714897632598877,0.2823631465435028
1743758148.878,-9.423272132873535,2.8619179725646973,0.24886244535446167
1743758148.878,-9.389771461486816,2.8571321964263916,0.22014755010604858
1743758148.957,-9.428057670593262,2.8619179725646973,0.21536172926425934
1743758148.957,-9.55727481842041,2.837989091873169,0.26800569891929626
1743758148.957,-9.547703742980957,2.7949166297912598,0.20579010248184204
1743758148.957,-9.605133056640625,2.8284173011779785,0.23450499773025513
1743758149.036,-9.710420608520508,2.804488182067871,0.29672059416770935
1743758149.036,-9.595561027526855,2.747058391571045,0.4450809061527252
1743758149.036,-9.4950590133667,2.7279152870178223,0.4259376525878906
1743758149.036,-9.456772804260254,2.823631525039673,0.3924369215965271
1743758149.115,-9.538131713867188,2.8427748680114746,0.35893622040748596
1743758149.115,-9.418486595153809,2.8284173011779785,0.27757734060287476
1743758149.115,-9.456772804260254,2.8571321964263916,0.23929080367088318
1743758149.115,-9.542917251586914,2.7853450775146484,0.22014755010604858
1743758149.194,-9.437629699707031,2.7279152870178223,0.22971917688846588
1743758149.194,-9.605133056640625,2.6752712726593018,0.181861013174057
1743758149.194,-9.719992637634277,2.7518444061279297,0.10528795421123505
1743758149.194,-9.542917251586914,2.900204658508301,0.18664683401584625
1743758149.272,-9.389771461486816,2.823631525039673,0.2010042816400528
1743758149.272,-9.56684684753418,2.8475606441497803,0.28714898228645325
1743758149.272,-9.600347518920898,2.866703987121582,0.35893622040748596
1743758149.272,-9.490273475646973,2.8619179725646973,0.3302213251590729
1743758149.351,-9.389771461486816,2.8858470916748047,0.3302213251590729
1743758149.351,-9.28926944732666,2.9049904346466064,0.3206496834754944
1743758149.351,-9.447200775146484,2.8906328678131104,0.22971917688846588
1743758149.351,-9.447200775146484,2.823631525039673,0.23450499773025513
1743758149.43,-9.46155834197998,2.833203077316284,0.23450499773025513
1743758149.43,-9.380199432373047,2.7997024059295654,0.24886244535446167
1743758149.43,-9.475915908813477,2.900204658508301,0.2536482512950897
1743758149.43,-9.480701446533203,2.9145619869232178,0.24886244535446167
1743758149.508,-9.595561027526855,2.900204658508301,0.2010042816400528
1743758149.508,-9.614705085754395,2.9193477630615234,0.17707519233226776
1743758149.508,-9.595561027526855,2.8858470916748047,0.2919347882270813
1743758149.508,-9.490273475646973,2.9480626583099365,0.29672059416770935
1743758149.587,-9.47113037109375,2.9528486728668213,0.26800569891929626
1743758149.587,-9.55727481842041,2.938491106033325,0.16750356554985046
1743758149.587,-9.447200775146484,2.8427748680114746,0.17707519233226776
1743758149.587,-9.394556999206543,2.7566301822662354,0.1722893863916397
1743758149.666,-9.250982284545898,2.804488182067871,0.25843408703804016
1743758149.666,-9.38498592376709,2.7566301822662354,0.11485958844423294
1743758149.666,-9.246196746826172,2.8140599727630615,0.14836029708385468
1743758149.666,-9.351485252380371,2.895418882369995,0.07657305896282196
1743758149.745,-9.39934253692627,2.9672060012817383,0.05264397710561752
1743758149.745,-9.322770118713379,3.058136463165283,0.12443122267723083
1743758149.745,-9.327555656433105,3.0677082538604736,0.15793193876743317
1743758149.745,-9.528559684753418,3.034207344055176,0.181861013174057
1743758149.824,-9.763065338134766,2.900204658508301,0.2105759084224701
1743758149.824,-9.676919937133789,2.852346420288086,0.3302213251590729
1743758149.824,-9.791779518127441,2.852346420288086,0.15793193876743317
1743758149.824,-9.782208442687988,2.8762755393981934,0.2727915346622467
1743758149.902,-9.935354232788086,2.823631525039673,0.12921704351902008
1743758149.902,-9.82528018951416,2.7853450775146484,0.15793193876743317
1743758149.902,-9.743921279907227,2.718343496322632,0.15314611792564392
1743758149.902,-9.581204414367676,2.7231295108795166,0.26800569891929626
1743758149.981,-9.600347518920898,2.6800570487976074,0.22971917688846588
1743758149.981,-9.47113037109375,2.732701063156128,0.2010042816400528
1743758149.981,-9.389771461486816,2.713557720184326,0.1722893863916397
1743758149.981,-9.308412551879883,2.7566301822662354,0.16750356554985046
1743758150.06,-9.250982284545898,2.818845748901367,0.1005021408200264
1743758150.06,-9.308412551879883,2.7662017345428467,-0.0047858161851763725
1743758150.06,-9.361056327819824,2.7949166297912598,0.08135887235403061
1743758150.06,-9.432844161987305,2.818845748901367,0.07178724557161331
1743758150.138,-9.423272132873535,2.7709875106811523,0.09571632742881775
1743758150.138,-9.475915908813477,2.761415958404541,0.12921704351902008
1743758150.138,-9.542917251586914,2.7374868392944336,0.09571632742881775
1743758150.138,-9.562060356140137,2.790130853652954,0.12443122267723083
1743758150.217,-9.700849533081055,2.732701063156128,0.20579010248184204
1743758150.217,-9.633848190307617,2.7662017345428467,0.22493335604667664
1743758150.217,-9.624276161193848,2.6896286010742188,0.2727915346622467
1743758150.217,-9.590775489807129,2.641770601272583,0.2632198929786682
1743758150.296,-9.576417922973633,2.6944146156311035,0.2010042816400528
1743758150.296,-9.624276161193848,2.6369848251342773,0.17707519233226776
1743758150.296,-9.64341926574707,2.699200391769409,0.11485958844423294
1743758150.296,-9.66256332397461,2.6896286010742188,0.06700142472982407
1743758150.375,-9.724778175354004,2.7949166297912598,0.01914326474070549
1743758150.375,-9.676919937133789,2.747058391571045,0.06221561133861542
1743758150.375,-9.638633728027344,2.7374868392944336,0.15314611792564392
1743758150.375,-9.71520709991455,2.790130853652954,0.12443122267723083
1743758150.454,-9.705635070800781,2.747058391571045,0.20579010248184204
1743758150.454,-9.734350204467773,2.790130853652954,0.17707519233226776
1743758150.454,-9.667348861694336,2.8140599727630615,0.16271774470806122
1743758150.454,-9.681706428527832,2.7518444061279297,0.11007377505302429
1743758150.533,-9.590775489807129,2.6896286010742188,0.13400284945964813
1743758150.533,-9.46155834197998,2.6896286010742188,0.08614469319581985
1743758150.533,-9.418486595153809,2.7279152870178223,0.14836029708385468
1743758150.533,-9.341913223266602,2.6609137058258057,0.09571632742881775
1743758150.611,-9.404129028320312,2.6609137058258057,-0.01914326474070549
1743758150.611,-9.265339851379395,2.684842824935913,0.13878867030143738
1743758150.611,-9.36584186553955,2.7662017345428467,0.1722893863916397
1743758150.611,-9.509416580200195,2.8140599727630615,0.11964540183544159
1743758150.69,-9.581204414367676,2.8571321964263916,0.22493335604667664
1743758150.69,-9.552489280700684,2.8762755393981934,0.08135887235403061
1743758150.69,-9.696063995361328,2.971991777420044,0.11485958844423294
1743758150.69,-9.629061698913574,2.9911351203918457,0.2536482512950897
1743758150.768,-9.734350204467773,2.8858470916748047,0.181861013174057
1743758150.768,-9.767850875854492,2.837989091873169,0.13400284945964813
1743758150.768,-9.7391357421875,2.8284173011779785,0.09571632742881775
1743758150.768,-9.629061698913574,2.761415958404541,0.08135887235403061
1743758150.847,-9.605133056640625,2.684842824935913,0.06700142472982407
1743758150.847,-9.595561027526855,2.6226272583007812,0.0909305065870285
1743758150.847,-9.533346176147461,2.5460541248321533,0.09571632742881775
1743758150.847,-9.4950590133667,2.627413034439087,0.11964540183544159
1743758150.926,-9.590775489807129,2.6944146156311035,0.08614469319581985
1743758150.926,-9.437629699707031,2.747058391571045,0.11007377505302429
1743758150.926,-9.46155834197998,2.7805593013763428,0.05264397710561752
1743758150.926,-9.55727481842041,2.852346420288086,0.09571632742881775
1743758151.004,-9.547703742980957,2.8140599727630615,0.13400284945964813
1743758151.004,-9.480701446533203,2.8427748680114746,0.1722893863916397
1743758151.004,-9.562060356140137,2.8762755393981934,0.11964540183544159
1743758151.004,-9.456772804260254,2.928919553756714,0.12921704351902008
1743758151.083,-9.528559684753418,2.8858470916748047,0.07657305896282196
1743758151.083,-9.595561027526855,2.8284173011779785,0.047858163714408875
1743758151.083,-9.4950590133667,2.833203077316284,0.1005021408200264
1743758151.083,-9.509416580200195,2.7662017345428467,0.05264397710561752
1743758151.162,-9.514202117919922,2.732701063156128,0.05264397710561752
1743758151.162,-9.56684684753418,2.6656997203826904,0.11485958844423294
1743758151.162,-9.490273475646973,2.6609137058258057,0.17707519233226776
1743758151.162,-9.547703742980957,2.6178414821624756,0.15793193876743317
1743758151.241,-9.638633728027344,2.6561279296875,0.1722893863916397
1743758151.241,-9.542917251586914,2.7087719440460205,0.13400284945964813
1743758151.241,-9.681706428527832,2.6513421535491943,0.014357448555529118
1743758151.241,-9.523774147033691,2.6561279296875,0.06221561133861542
1743758151.32,-9.504631042480469,2.6800570487976074,0.08614469319581985
1743758151.32,-9.389771461486816,2.6752712726593018,0.06221561133861542
1743758151.32,-9.581204414367676,2.6561279296875,0.05264397710561752
1743758151.32,-9.456772804260254,2.7374868392944336,0.09571632742881775
1743758151.398,-9.523774147033691,2.7662017345428467,0.06221561133861542
1743758151.398,-9.523774147033691,2.7949166297912598,0.08135887235403061
1743758151.398,-9.585989952087402,2.7949166297912598,0.12921704351902008
1743758151.398,-9.576417922973633,2.7279152870178223,0.17707519233226776
1743758151.477,-9.590775489807129,2.7518444061279297,0.16271774470806122
1743758151.477,-9.581204414367676,2.790130853652954,0.11485958844423294
1743758151.477,-9.428057670593262,2.7805593013763428,0.12921704351902008
1743758151.477,-9.528559684753418,2.790130853652954,0.09571632742881775
1743758151.556,-9.4950590133667,2.809274196624756,0.01914326474070549
1743758151.556,-9.595561027526855,2.7566301822662354,0.03828652948141098
1743758151.556,-9.47113037109375,2.7709875106811523,0.06700142472982407
1743758151.556,-9.614705085754395,2.818845748901367,0.06700142472982407
1743758151.634,-9.504631042480469,2.852346420288086,0.10528795421123505
1743758151.634,-9.571632385253906,2.804488182067871,0.06700142472982407
1743758151.634,-9.619490623474121,2.8427748680114746,0.1005021408200264
1743758151.634,-9.552489280700684,2.8906328678131104,0.15793193876743317
1743758151.713,-9.585989952087402,2.895418882369995,0.09571632742881775
1743758151.713,-9.428057670593262,2.881061315536499,0.13400284945964813
1743758151.713,-9.667348861694336,2.804488182067871,0.028714897111058235
1743758151.713,-9.562060356140137,2.8906328678131104,0.08135887235403061
1743758151.792,-9.490273475646973,2.7709875106811523,0.04307234659790993
1743758151.792,-9.466344833374023,2.833203077316284,-0.014357448555529118
1743758151.792,-9.37541389465332,2.8762755393981934,0.047858163714408875
1743758151.792,-9.46155834197998,2.837989091873169,0.028714897111058235
1743758151.871,-9.466344833374023,2.7566301822662354,0.07657305896282196
1743758151.871,-9.451987266540527,2.837989091873169,0.12921704351902008
1743758151.871,-9.442415237426758,2.8619179725646973,0.11485958844423294
1743758151.871,-9.490273475646973,2.928919553756714,0.06221561133861542
1743758151.95,-9.562060356140137,2.895418882369995,0.08135887235403061
1743758151.95,-9.542917251586914,2.900204658508301,0.15314611792564392
1743758151.95,-9.66256332397461,2.790130853652954,0.07657305896282196
1743758151.95,-9.614705085754395,2.7566301822662354,0.11007377505302429
1743758152.028,-9.609918594360352,2.7997024059295654,0.14357449114322662
1743758152.028,-9.595561027526855,2.7949166297912598,0.16750356554985046
1743758152.028,-9.64341926574707,2.7949166297912598,0.06221561133861542
1743758152.028,-9.590775489807129,2.775773286819458,0.11485958844423294
1743758152.107,-9.65299129486084,2.7662017345428467,0.03828652948141098
1743758152.107,-9.514202117919922,2.804488182067871,0.12443122267723083
1743758152.107,-9.562060356140137,2.809274196624756,0.08614469319581985
1743758152.107,-9.518988609313965,2.823631525039673,0.028714897111058235
1743758152.186,-9.404129028320312,2.7949166297912598,0.10528795421123505
1743758152.186,-9.46155834197998,2.833203077316284,0.028714897111058235
1743758152.186,-9.39934253692627,2.866703987121582,0.08614469319581985
1743758152.186,-9.490273475646973,2.881061315536499,0.07178724557161331
1743758152.264,-9.408914566040039,2.881061315536499,0.06221561133861542
1743758152.264,-9.562060356140137,2.866703987121582,0.0047858161851763725
1743758152.264,-9.538131713867188,2.8619179725646973,0.0047858161851763725
1743758152.264,-9.4950590133667,2.852346420288086,0.05742979422211647
1743758152.343,-9.55727481842041,2.8571321964263916,0.07178724557161331
1743758152.343,-9.609918594360352,2.8571321964263916,0.17707519233226776
1743758152.343,-9.609918594360352,2.7949166297912598,0.19621846079826355
1743758152.343,-9.64341926574707,2.823631525039673,0.17707519233226776
1743758152.422,-9.638633728027344,2.8714897632598877,0.2105759084224701
1743758152.422,-9.614705085754395,2.8571321964263916,0.2105759084224701
1743758152.422,-9.562060356140137,2.790130853652954,0.17707519233226776
1743758152.422,-9.624276161193848,2.833203077316284,0.0909305065870285
1743758152.501,-9.504631042480469,2.7709875106811523,0.12921704351902008
1743758152.501,-9.518988609313965,2.8427748680114746,0.06700142472982407
1743758152.501,-9.490273475646973,2.8427748680114746,0.05742979422211647
1743758152.501,-9.571632385253906,2.837989091873169,0.0047858161851763725
1743758152.58,-9.437629699707031,2.809274196624756,0.11485958844423294
1743758152.58,-9.408914566040039,2.8858470916748047,0.08135887235403061
1743758152.58,-9.39934253692627,2.8858470916748047,0.11485958844423294
1743758152.58,-9.39934253692627,2.837989091873169,0.0909305065870285
1743758152.658,-9.56684684753418,2.7518444061279297,0.09571632742881775
1743758152.658,-9.552489280700684,2.7518444061279297,0.08614469319581985
1743758152.658,-9.562060356140137,2.7805593013763428,0.12443122267723083
1743758152.658,-9.523774147033691,2.8475606441497803,0.06700142472982407
1743758152.737,-9.56684684753418,2.823631525039673,0.12443122267723083
1743758152.737,-9.571632385253906,2.761415958404541,0.11007377505302429
1743758152.737,-9.523774147033691,2.747058391571045,0.14836029708385468
1743758152.737,-9.547703742980957,2.7709875106811523,0.16750356554985046
1743758152.816,-9.542917251586914,2.747058391571045,0.15314611792564392
1743758152.816,-9.4950590133667,2.713557720184326,0.2010042816400528
1743758152.816,-9.518988609313965,2.823631525039673,0.1005021408200264
1743758152.816,-9.456772804260254,2.7853450775146484,0.15793193876743317
1743758152.894,-9.576417922973633,2.747058391571045,0.15793193876743317
1743758152.894,-9.480701446533203,2.747058391571045,0.1914326548576355
1743758152.894,-9.676919937133789,2.7087719440460205,0.14357449114322662
1743758152.894,-9.514202117919922,2.7997024059295654,0.19621846079826355
1743758152.973,-9.696063995361328,2.7566301822662354,0.07178724557161331
1743758152.973,-9.533346176147461,2.837989091873169,0.181861013174057
1743758152.973,-9.609918594360352,2.775773286819458,0.11007377505302429
1743758152.973,-9.442415237426758,2.718343496322632,0.1722893863916397
1743758153.052,-9.576417922973633,2.732701063156128,0.18664683401584625
1743758153.052,-9.528559684753418,2.775773286819458,0.14836029708385468
1743758153.052,-9.389771461486816,2.8140599727630615,0.22014755010604858
1743758153.052,-9.504631042480469,2.8427748680114746,0.10528795421123505
1743758153.13,-9.47113037109375,2.8906328678131104,0.15793193876743317
1743758153.13,-9.533346176147461,2.833203077316284,0.1722893863916397
1743758153.13,-9.542917251586914,2.833203077316284,0.1722893863916397
1743758153.13,-9.562060356140137,2.8475606441497803,0.20579010248184204
1743758153.209,-9.624276161193848,2.852346420288086,0.2919347882270813
1743758153.209,-9.571632385253906,2.7518444061279297,0.181861013174057
1743758153.209,-9.581204414367676,2.7662017345428467,0.21536172926425934
1743758153.209,-9.595561027526855,2.718343496322632,0.16750356554985046
1743758153.288,-9.533346176147461,2.732701063156128,0.2010042816400528
1743758153.288,-9.499845504760742,2.7087719440460205,0.18664683401584625
1743758153.288,-9.46155834197998,2.7231295108795166,0.16271774470806122
1743758153.288,-9.428057670593262,2.7518444061279297,0.10528795421123505
1743758153.367,-9.428057670593262,2.8619179725646973,0.17707519233226776
1743758153.367,-9.423272132873535,2.852346420288086,0.12921704351902008
1743758153.367,-9.37541389465332,2.8475606441497803,0.15793193876743317
1743758153.367,-9.676919937133789,2.818845748901367,0.11485958844423294
1743758153.446,-9.451987266540527,2.852346420288086,0.22493335604667664
1743758153.446,-9.509416580200195,2.761415958404541,0.13400284945964813
1743758153.446,-9.552489280700684,2.809274196624756,0.14357449114322662
1743758153.446,-9.547703742980957,2.9528486728668213,0.1722893863916397
1743758153.524,-9.547703742980957,2.775773286819458,0.16271774470806122
1743758153.524,-9.456772804260254,2.775773286819458,0.2105759084224701
1743758153.524,-9.514202117919922,2.6944146156311035,0.21536172926425934
1743758153.524,-9.552489280700684,2.7566301822662354,0.13878867030143738
1743758153.603,-9.514202117919922,2.713557720184326,0.07178724557161331
1743758153.603,-9.533346176147461,2.790130853652954,0.13400284945964813
1743758153.603,-9.523774147033691,2.7709875106811523,0.16271774470806122
1743758153.603,-9.585989952087402,2.7853450775146484,0.22014755010604858
1743758153.682,-9.552489280700684,2.7279152870178223,0.2727915346622467
1743758153.682,-9.590775489807129,2.7518444061279297,0.23450499773025513
1743758153.682,-9.686491966247559,2.809274196624756,0.181861013174057
1743758153.682,-9.657776832580566,2.8619179725646973,0.13878867030143738
1743758153.76,-9.590775489807129,2.8284173011779785,0.05742979422211647
1743758153.76,-9.585989952087402,2.804488182067871,0.07657305896282196
1743758153.76,-9.509416580200195,2.775773286819458,0.1722893863916397
1743758153.76,-9.552489280700684,2.7805593013763428,0.18664683401584625
1743758153.839,-9.523774147033691,2.790130853652954,0.1005021408200264
1743758153.839,-9.538131713867188,2.7662017345428467,0.11964540183544159
1743758153.839,-9.490273475646973,2.852346420288086,0.1722893863916397
1743758153.839,-9.432844161987305,2.804488182067871,0.1914326548576355
1743758153.918,-9.55727481842041,2.7997024059295654,0.11485958844423294
1743758153.918,-9.404129028320312,2.7805593013763428,0.19621846079826355
1743758153.918,-9.504631042480469,2.8427748680114746,0.12921704351902008
1743758153.918,-9.423272132873535,2.761415958404541,0.12921704351902008
1743758153.997,-9.504631042480469,2.809274196624756,0.07178724557161331
1743758153.997,-9.451987266540527,2.775773286819458,0.12443122267723083
1743758153.997,-9.518988609313965,2.804488182067871,0.05264397710561752
1743758153.997,-9.533346176147461,2.7853450775146484,-0.0047858161851763725
1743758154.076,-9.504631042480469,2.852346420288086,0.12443122267723083
1743758154.076,-9.605133056640625,2.7949166297912598,0.17707519233226776
1743758154.076,-9.4950590133667,2.7997024059295654,0.25843408703804016
1743758154.076,-9.523774147033691,2.7805593013763428,0.18664683401584625
1743758154.154,-9.633848190307617,2.809274196624756,0.06700142472982407
1743758154.154,-9.696063995361328,2.809274196624756,0.12443122267723083
1743758154.154,-9.624276161193848,2.8140599727630615,0.07178724557161331
1743758154.154,-9.595561027526855,2.7853450775146484,0.05742979422211647
1743758154.233,-9.562060356140137,2.7566301822662354,0.12921704351902008
1743758154.233,-9.56684684753418,2.7566301822662354,0.18664683401584625
1743758154.233,-9.485487937927246,2.7374868392944336,0.15793193876743317
1743758154.233,-9.518988609313965,2.761415958404541,0.12443122267723083
1743758154.312,-9.509416580200195,2.7805593013763428,0.07657305896282196
1743758154.312,-9.499845504760742,2.7374868392944336,0.08135887235403061
1743758154.312,-9.542917251586914,2.7997024059295654,0.05264397710561752
1743758154.312,-9.518988609313965,2.8619179725646973,0
1743758154.39,-9.518988609313965,2.8571321964263916,0.06221561133861542
1743758154.39,-9.485487937927246,2.900204658508301,0.06700142472982407
1743758154.39,-9.504631042480469,2.8284173011779785,0.05742979422211647
1743758154.39,-9.56684684753418,2.837989091873169,0.12443122267723083
1743758154.469,-9.547703742980957,2.8571321964263916,0.12921704351902008
1743758154.469,-9.509416580200195,2.852346420288086,0.03828652948141098
1743758154.469,-9.37541389465332,2.8427748680114746,0.028714897111058235
1743758154.469,-9.609918594360352,2.900204658508301,0.03350071236491203
1743758154.548,-9.423272132873535,2.833203077316284,0.028714897111058235
1743758154.548,-9.480701446533203,2.775773286819458,0.06221561133861542
1743758154.548,-9.485487937927246,2.8475606441497803,0.18664683401584625
1743758154.548,-9.542917251586914,2.909776210784912,0.05742979422211647
1743758154.627,-9.456772804260254,2.8858470916748047,0.13878867030143738
1743758154.627,-9.576417922973633,2.938491106033325,0.1005021408200264
1743758154.627,-9.600347518920898,2.9193477630615234,0.11964540183544159
1743758154.627,-9.585989952087402,2.938491106033325,0.0909305065870285
1743758154.706,-9.64341926574707,2.8858470916748047,0.1005021408200264
1743758154.706,-9.55727481842041,2.924133777618408,0.04307234659790993
1743758154.706,-9.605133056640625,2.866703987121582,0.05264397710561752
1743758154.706,-9.629061698913574,2.823631525039673,0.009571632370352745
1743758154.784,-9.609918594360352,2.809274196624756,0.15793193876743317
1743758154.784,-9.581204414367676,2.8619179725646973,0.07178724557161331
1743758154.784,-9.56684684753418,2.895418882369995,0.09571632742881775
1743758154.784,-9.576417922973633,2.8619179725646973,0.12443122267723083
1743758154.863,-9.518988609313965,2.8571321964263916,0.05742979422211647
1743758154.863,-9.428057670593262,2.8427748680114746,0.11485958844423294
1743758154.863,-9.404129028320312,2.804488182067871,0.12921704351902008
1743758154.863,-9.466344833374023,2.837989091873169,0.08614469319581985
1743758154.942,-9.432844161987305,2.804488182067871,-0.009571632370352745
1743758154.942,-9.514202117919922,2.8714897632598877,0.009571632370352745
1743758154.942,-9.509416580200195,2.8714897632598877,0.07657305896282196
1743758154.942,-9.547703742980957,2.823631525039673,0.01914326474070549
1743758155.02,-9.56684684753418,2.852346420288086,0.03350071236491203
1743758155.02,-9.518988609313965,2.837989091873169,0.10528795421123505
1743758155.02,-9.423272132873535,2.775773286819458,0.14836029708385468
1743758155.02,-9.581204414367676,2.7709875106811523,0.1005021408200264
1743758155.099,-9.528559684753418,2.7709875106811523,0.11964540183544159
1743758155.099,-9.480701446533203,2.7997024059295654,0.07657305896282196
1743758155.099,-9.4950590133667,2.8619179725646973,0.1005021408200264
1743758155.099,-9.47113037109375,2.8475606441497803,0.07178724557161331
1743758155.178,-9.55727481842041,2.809274196624756,0.10528795421123505
1743758155.178,-9.533346176147461,2.7853450775146484,0.10528795421123505
1743758155.178,-9.562060356140137,2.7949166297912598,0.1722893863916397
1743758155.178,-9.600347518920898,2.7853450775146484,0.09571632742881775
1743758155.256,-9.562060356140137,2.852346420288086,0.08135887235403061
1743758155.256,-9.451987266540527,2.8427748680114746,0.10528795421123505
1743758155.256,-9.576417922973633,2.837989091873169,-0.023929081857204437
1743758155.256,-9.46155834197998,2.8284173011779785,0.11964540183544159
1743758155.335,-9.528559684753418,2.7805593013763428,0.023929081857204437
1743758155.335,-9.413700103759766,2.7422726154327393,0.14357449114322662
1743758155.335,-9.528559684753418,2.790130853652954,0.08135887235403061
1743758155.335,-9.542917251586914,2.837989091873169,0.07178724557161331
1743758155.414,-9.547703742980957,2.8714897632598877,0.11964540183544159
1743758155.414,-9.571632385253906,2.8284173011779785,0.11964540183544159
1743758155.414,-9.466344833374023,2.8140599727630615,0.181861013174057
1743758155.414,-9.700849533081055,2.804488182067871,0.10528795421123505
1743758155.493,-9.4950590133667,2.8714897632598877,0.22014755010604858
1743758155.493,-9.624276161193848,2.7566301822662354,0.04307234659790993
1743758155.493,-9.47113037109375,2.7566301822662354,0.13878867030143738
1743758155.493,-9.585989952087402,2.7422726154327393,0.07178724557161331
1743758155.572,-9.514202117919922,2.761415958404541,0.06221561133861542
1743758155.572,-9.533346176147461,2.732701063156128,0.06221561133861542
1743758155.572,-9.528559684753418,2.747058391571045,0.13400284945964813
1743758155.572,-9.538131713867188,2.747058391571045,0.1722893863916397
1743758155.65,-9.509416580200195,2.7518444061279297,0.08614469319581985
1743758155.65,-9.451987266540527,2.7422726154327393,0.22493335604667664
1743758155.65,-9.600347518920898,2.7087719440460205,0.1005021408200264
1743758155.65,-9.609918594360352,2.7279152870178223,0.07178724557161331
1743758155.729,-9.64341926574707,2.7949166297912598,0.0909305065870285
1743758155.729,-9.4950590133667,2.7518444061279297,0.05742979422211647
1743758155.729,-9.504631042480469,2.823631525039673,0.08135887235403061
1743758155.729,-9.475915908813477,2.8571321964263916,0.0909305065870285
1743758155.808,-9.686491966247559,2.790130853652954,0.06221561133861542
1743758155.808,-9.542917251586914,2.7805593013763428,0.1005021408200264
1743758155.808,-9.624276161193848,2.775773286819458,0.08614469319581985
1743758155.808,-9.605133056640625,2.7805593013763428,0.15793193876743317
1743758155.886,-9.55727481842041,2.804488182067871,0.03828652948141098
1743758155.886,-9.47113037109375,2.866703987121582,0.08614469319581985
1743758155.886,-9.518988609313965,2.8571321964263916,0.11007377505302429
1743758155.886,-9.576417922973633,2.8284173011779785,0.13878867030143738
1743758155.965,-9.466344833374023,2.8140599727630615,0.16271774470806122
1743758155.965,-9.571632385253906,2.809274196624756,0.11485958844423294
1743758155.965,-9.437629699707031,2.881061315536499,0.181861013174057
1743758155.965,-9.600347518920898,2.804488182067871,0.07657305896282196
1743758156.044,-9.667348861694336,2.8284173011779785,0.0047858161851763725
1743758156.044,-9.533346176147461,2.833203077316284,0.06221561133861542
1743758156.044,-9.514202117919922,2.790130853652954,0.08135887235403061
1743758156.044,-9.518988609313965,2.7279152870178223,0.1005021408200264
1743758156.123,-9.605133056640625,2.7853450775146484,0.18664683401584625
1743758156.123,-9.518988609313965,2.804488182067871,0.13400284945964813
1743758156.123,-9.562060356140137,2.823631525039673,0.1005021408200264
1743758156.123,-9.609918594360352,2.823631525039673,0.11964540183544159
1743758156.202,-9.499845504760742,2.7853450775146484,0.11485958844423294
1743758156.202,-9.475915908813477,2.703986167907715,0.05742979422211647
1743758156.202,-9.514202117919922,2.6656997203826904,0.11007377505302429
1743758156.202,-9.46155834197998,2.7087719440460205,0.13400284945964813
1743758156.28,-9.423272132873535,2.7374868392944336,0.04307234659790993
1743758156.28,-9.451987266540527,2.7566301822662354,0.0909305065870285
1743758156.28,-9.418486595153809,2.718343496322632,0.12921704351902008
1743758156.28,-9.547703742980957,2.699200391769409,0.15314611792564392
1743758156.359,-9.562060356140137,2.6800570487976074,0.23450499773025513
1743758156.359,-9.676919937133789,2.713557720184326,0.13400284945964813
1743758156.359,-9.571632385253906,2.732701063156128,0.13400284945964813
1743758156.359,-9.638633728027344,2.809274196624756,0.13878867030143738
1743758156.438,-9.571632385253906,2.837989091873169,0.14836029708385468
1743758156.438,-9.638633728027344,2.747058391571045,0.11964540183544159
1743758156.438,-9.719992637634277,2.7662017345428467,0.05742979422211647
1743758156.438,-9.657776832580566,2.7709875106811523,0.09571632742881775
1743758156.516,-9.585989952087402,2.833203077316284,0.06700142472982407
1743758156.516,-9.39934253692627,2.881061315536499,0.15314611792564392
1743758156.516,-9.499845504760742,2.9049904346466064,0.0909305065870285
1743758156.516,-9.442415237426758,2.928919553756714,0.11485958844423294
1743758156.595,-9.528559684753418,2.8762755393981934,0.1005021408200264
1743758156.595,-9.389771461486816,2.881061315536499,0.13400284945964813
1743758156.595,-9.394556999206543,2.866703987121582,0.15314611792564392
1743758156.595,-9.499845504760742,2.804488182067871,0.11964540183544159
1743758156.673,-9.46155834197998,2.881061315536499,0.16271774470806122
1743758156.673,-9.36584186553955,2.881061315536499,0.14357449114322662
1743758156.673,-9.504631042480469,2.928919553756714,0.2010042816400528
1743758156.673,-9.609918594360352,2.8475606441497803,0.27757734060287476
1743758156.752,-9.638633728027344,2.8619179725646973,0.25843408703804016
1743758156.752,-9.571632385253906,2.8858470916748047,0.2536482512950897
1743758156.752,-9.64341926574707,2.8475606441497803,0.21536172926425934
1743758156.752,-9.624276161193848,2.804488182067871,0.24407662451267242
1743758156.831,-9.624276161193848,2.7709875106811523,0.2105759084224701
1743758156.831,-9.605133056640625,2.809274196624756,0.1914326548576355
1743758156.831,-9.423272132873535,2.7662017345428467,0.25843408703804016
1743758156.831,-9.509416580200195,2.713557720184326,0.20579010248184204
1743758156.91,-9.585989952087402,2.7374868392944336,0.16271774470806122
1743758156.91,-9.47113037109375,2.6752712726593018,0.13878867030143738
1743758156.91,-9.480701446533203,2.7709875106811523,0.07178724557161331
1743758156.91,-9.475915908813477,2.7518444061279297,0.2010042816400528
1743758156.989,-9.56684684753418,2.732701063156128,0.1722893863916397
1743758156.989,-9.504631042480469,2.7662017345428467,0.1914326548576355
1743758156.989,-9.585989952087402,2.718343496322632,0.15314611792564392
1743758156.989,-9.672134399414062,2.6752712726593018,0.21536172926425934
1743758157.068,-9.609918594360352,2.7662017345428467,0.21536172926425934
1743758157.068,-9.55727481842041,2.732701063156128,0.24407662451267242
1743758157.068,-9.404129028320312,2.7422726154327393,0.21536172926425934
1743758157.068,-9.528559684753418,2.7374868392944336,0.23450499773025513
1743758157.146,-9.442415237426758,2.718343496322632,0.24886244535446167
1743758157.146,-9.47113037109375,2.732701063156128,0.24886244535446167
1743758157.146,-9.46155834197998,2.8427748680114746,0.1722893863916397
1743758157.146,-9.571632385253906,2.837989091873169,0.1722893863916397
1743758157.225,-9.576417922973633,2.8619179725646973,0.16750356554985046
1743758157.225,-9.600347518920898,2.8140599727630615,0.1722893863916397
1743758157.225,-9.595561027526855,2.7662017345428467,0.24407662451267242
1743758157.225,-9.638633728027344,2.7231295108795166,0.2823631465435028
1743758157.303,-9.681706428527832,2.7231295108795166,0.2632198929786682
1743758157.303,-9.65299129486084,2.790130853652954,0.2105759084224701
1743758157.303,-9.55727481842041,2.7709875106811523,0.25843408703804016
1743758157.303,-9.542917251586914,2.7422726154327393,0.31586387753486633
1743758157.382,-9.47113037109375,2.699200391769409,0.25843408703804016
1743758157.382,-9.480701446533203,2.6321988105773926,0.27757734060287476
1743758157.382,-9.490273475646973,2.7374868392944336,0.1722893863916397
1743758157.382,-9.408914566040039,2.7662017345428467,0.12921704351902008
1743758157.461,-9.4950590133667,2.8284173011779785,0.181861013174057
1743758157.461,-9.514202117919922,2.837989091873169,0.20579010248184204
1743758157.461,-9.562060356140137,2.703986167907715,0.3110780417919159
1743758157.461,-9.542917251586914,2.684842824935913,0.3732936680316925
1743758157.54,-9.624276161193848,2.7662017345428467,0.339792937040329
1743758157.54,-9.518988609313965,2.775773286819458,0.3302213251590729
1743758157.54,-9.648205757141113,2.7518444061279297,0.16750356554985046
1743758157.54,-9.542917251586914,2.790130853652954,0.16271774470806122
1743758157.619,-9.47113037109375,2.6944146156311035,0.1722893863916397
1743758157.619,-9.509416580200195,2.6465563774108887,0.13878867030143738
1743758157.619,-9.552489280700684,2.713557720184326,0.11964540183544159
1743758157.619,-9.47113037109375,2.684842824935913,0.14836029708385468
1743758157.698,-9.46155834197998,2.7422726154327393,0.08135887235403061
1743758157.698,-9.418486595153809,2.7709875106811523,0.11485958844423294
1743758157.698,-9.394556999206543,2.8619179725646973,0.24886244535446167
1743758157.698,-9.294054985046387,2.909776210784912,0.24407662451267242
1743758157.776,-9.456772804260254,2.9624202251434326,0.181861013174057
1743758157.776,-9.777422904968262,2.8906328678131104,0.1914326548576355
1743758157.776,-9.705635070800781,2.732701063156128,0.2632198929786682
1743758157.776,-9.882710456848145,2.6800570487976074,0.14836029708385468
1743758157.855,-9.758278846740723,2.7087719440460205,0.23929080367088318
1743758157.855,-9.763065338134766,2.837989091873169,0.22971917688846588
1743758157.855,-9.64341926574707,2.7805593013763428,0.19621846079826355
1743758157.855,-9.585989952087402,2.7279152870178223,0.16750356554985046
1743758157.933,-9.102622032165527,2.7949166297912598,0.4259376525878906
1743758157.933,-9.648205757141113,2.6656997203826904,0.1722893863916397
1743758157.933,-9.619490623474121,2.7518444061279297,0.37807947397232056
1743758157.933,-9.337127685546875,2.8571321964263916,0.339792937040329
1743758158.012,-9.27969741821289,2.938491106033325,0.44029510021209717
1743758158.012,-9.265339851379395,2.8714897632598877,0.6652284264564514
1743758158.012,-9.36584186553955,2.7566301822662354,0.6077986359596252
1743758158.012,-9.341913223266602,2.8140599727630615,0.5168681740760803
1743758158.091,-9.571632385253906,2.7087719440460205,0.2919347882270813
1743758158.091,-9.528559684753418,2.732701063156128,0.27757734060287476
1743758158.091,-9.657776832580566,2.6034839153289795,0.12921704351902008
1743758158.091,-9.514202117919922,2.493410348892212,0.26800569891929626
1743758158.169,-9.633848190307617,2.3833365440368652,0.17707519233226776
1743758158.169,-9.676919937133789,2.311549186706543,0.1914326548576355
1743758158.169,-9.801351547241211,2.2876200675964355,0.23450499773025513
1743758158.169,-9.815709114074707,2.3019776344299316,0.15314611792564392
1743758158.248,-9.777422904968262,2.402479648590088,0.1914326548576355
1743758158.248,-9.66256332397461,2.550840139389038,0.3445787727832794
1743758158.248,-9.667348861694336,2.7279152870178223,0.382865309715271
1743758158.248,-9.672134399414062,2.833203077316284,0.3924369215965271
1743758158.327,-9.66256332397461,2.9528486728668213,0.382865309715271
1743758158.327,-9.485487937927246,2.9815635681152344,0.44029510021209717
1743758158.327,-9.528559684753418,3.048564910888672,0.3541503846645355
1743758158.327,-9.466344833374023,3.1299238204956055,0.363722026348114
1743758158.406,-9.408914566040039,3.105994701385498,0.3732936680316925
1743758158.406,-9.523774147033691,3.120352268218994,0.26800569891929626
1743758158.406,-9.36584186553955,2.9959208965301514,0.2919347882270813
1743758158.406,-9.442415237426758,2.8571321964263916,0.24407662451267242
1743758158.485,-9.46155834197998,2.790130853652954,0.3541503846645355
1743758158.485,-9.428057670593262,2.7853450775146484,0.382865309715271
1743758158.485,-9.423272132873535,2.8140599727630615,0.3302213251590729
1743758158.485,-9.499845504760742,2.7422726154327393,0.3015064299106598
1743758158.564,-9.624276161193848,2.7231295108795166,0.1914326548576355
1743758158.564,-9.538131713867188,2.775773286819458,0.3302213251590729
1743758158.564,-9.547703742980957,2.924133777618408,0.24407662451267242
1743758158.564,-9.590775489807129,2.8427748680114746,0.2727915346622467
1743758158.642,-9.657776832580566,2.8858470916748047,0.382865309715271
1743758158.642,-9.55727481842041,2.7997024059295654,0.35893622040748596
1743758158.642,-9.71520709991455,2.7279152870178223,0.2727915346622467
1743758158.642,-9.65299129486084,2.7949166297912598,0.27757734060287476
1743758158.721,-9.518988609313965,2.8714897632598877,0.26800569891929626
1743758158.721,-9.547703742980957,2.9193477630615234,0.15314611792564392
1743758158.721,-9.585989952087402,2.8714897632598877,0.16750356554985046
1743758158.721,-9.432844161987305,2.7709875106811523,0.32543548941612244
1743758158.799,-9.327555656433105,2.699200391769409,0.4115802049636841
1743758158.799,-9.418486595153809,2.7231295108795166,0.3350071310997009
1743758158.799,-9.36584186553955,2.7422726154327393,0.32543548941612244
1743758158.799,-9.351485252380371,2.775773286819458,0.2727915346622467
1743758158.878,-9.394556999206543,2.866703987121582,0.22493335604667664
1743758158.878,-9.552489280700684,2.7518444061279297,0.2536482512950897
1743758158.878,-9.619490623474121,2.7087719440460205,0.22014755010604858
1743758158.878,-9.542917251586914,2.823631525039673,0.30629223585128784
1743758158.957,-9.700849533081055,2.9193477630615234,0.2632198929786682
1743758158.957,-9.585989952087402,3.02942156791687,0.2919347882270813
1743758158.957,-9.648205757141113,2.9815635681152344,0.2823631465435028
1743758158.957,-9.667348861694336,2.957634449005127,0.29672059416770935
1743758159.036,-9.633848190307617,2.866703987121582,0.339792937040329
1743758159.036,-9.456772804260254,2.7997024059295654,0.38765111565589905
1743758159.036,-9.475915908813477,2.809274196624756,0.24886244535446167
1743758159.036,-9.451987266540527,2.837989091873169,0.20579010248184204
1743758159.115,-9.28926944732666,2.823631525039673,0.1914326548576355
1743758159.115,-9.394556999206543,2.809274196624756,0.0909305065870285
1743758159.115,-9.394556999206543,2.775773286819458,0.13400284945964813
1743758159.115,-9.413700103759766,2.7231295108795166,0.12443122267723083
1743758159.194,-9.442415237426758,2.7662017345428467,0.2823631465435028
1743758159.194,-9.47113037109375,2.8140599727630615,0.2632198929786682
1743758159.194,-9.648205757141113,2.8858470916748047,0.3924369215965271
1743758159.194,-9.480701446533203,2.9145619869232178,0.4211518168449402
1743758159.272,-9.638633728027344,2.9528486728668213,0.3541503846645355
1743758159.272,-9.518988609313965,2.909776210784912,0.39722275733947754
1743758159.272,-9.576417922973633,2.8762755393981934,0.28714898228645325
1743758159.272,-9.499845504760742,2.8140599727630615,0.20579010248184204
1743758159.351,-9.576417922973633,2.823631525039673,0.07178724557161331
1743758159.351,-9.480701446533203,2.8284173011779785,0.14357449114322662
1743758159.351,-9.528559684753418,2.823631525039673,0.06221561133861542
1743758159.351,-9.466344833374023,2.8619179725646973,0.16271774470806122
1743758159.429,-9.576417922973633,2.818845748901367,0.16271774470806122
1743758159.429,-9.624276161193848,2.833203077316284,0.2632198929786682
1743758159.429,-9.657776832580566,2.866703987121582,0.25843408703804016
1743758159.429,-9.538131713867188,2.928919553756714,0.32543548941612244
1743758159.508,-9.547703742980957,2.909776210784912,0.31586387753486633
1743758159.508,-9.571632385253906,2.9337053298950195,0.25843408703804016
1743758159.508,-9.542917251586914,2.9337053298950195,0.1914326548576355
1743758159.508,-9.518988609313965,2.928919553756714,0.14836029708385468
1743758159.587,-9.46155834197998,2.8714897632598877,0.0909305065870285
1743758159.587,-9.499845504760742,2.833203077316284,0.08135887235403061
1743758159.587,-9.514202117919922,2.809274196624756,0.0909305065870285
1743758159.587,-9.432844161987305,2.747058391571045,0.2010042816400528
1743758159.666,-9.480701446533203,2.818845748901367,0.2010042816400528
1743758159.666,-9.523774147033691,2.809274196624756,0.2919347882270813
1743758159.666,-9.538131713867188,2.823631525039673,0.3110780417919159
1743758159.666,-9.504631042480469,2.881061315536499,0.2727915346622467
1743758159.745,-9.590775489807129,2.900204658508301,0.21536172926425934
1743758159.745,-9.638633728027344,2.9145619869232178,0.19621846079826355
1743758159.745,-9.480701446533203,2.924133777618408,0.13400284945964813
1743758159.745,-9.518988609313965,2.866703987121582,0.1005021408200264
1743758159.824,-9.552489280700684,2.8906328678131104,0.0909305065870285
1743758159.824,-9.514202117919922,2.837989091873169,0.13878867030143738
1743758159.824,-9.509416580200195,2.8762755393981934,0.13400284945964813
1743758159.824,-9.538131713867188,2.9049904346466064,0.14836029708385468
1743758159.902,-9.514202117919922,2.9337053298950195,0.22971917688846588
1743758159.902,-9.504631042480469,3.000706672668457,0.23450499773025513
1743758159.902,-9.480701446533203,2.971991777420044,0.19621846079826355
1743758159.902,-9.56684684753418,2.9528486728668213,0.17707519233226776
1743758159.981,-9.442415237426758,2.943276882171631,0.16750356554985046
1743758159.981,-9.480701446533203,2.8762755393981934,0.14357449114322662
1743758159.981,-9.518988609313965,2.938491106033325,0.22014755010604858
1743758159.981,-9.523774147033691,2.938491106033325,0.11485958844423294
1743758160.059,-9.394556999206543,2.943276882171631,0.09571632742881775
1743758160.059,-9.418486595153809,2.957634449005127,-0.0047858161851763725
1743758160.059,-9.480701446533203,2.943276882171631,0.06700142472982407
1743758160.059,-9.447200775146484,2.9480626583099365,0.13878867030143738
1743758160.138,-9.523774147033691,2.8762755393981934,0.15314611792564392
1743758160.138,-9.404129028320312,2.7997024059295654,0.29672059416770935
1743758160.138,-9.485487937927246,2.8762755393981934,0.21536172926425934
1743758160.138,-9.370628356933594,2.866703987121582,0.21536172926425934
1743758160.217,-9.538131713867188,2.8858470916748047,0.08614469319581985
1743758160.217,-9.456772804260254,2.909776210784912,0.13878867030143738
1743758160.217,-9.624276161193848,2.881061315536499,0.08135887235403061
1743758160.217,-9.581204414367676,2.895418882369995,0.15793193876743317
1743758160.295,-9.590775489807129,2.9145619869232178,0.23450499773025513
1743758160.295,-9.518988609313965,2.881061315536499,0.31586387753486633
1743758160.295,-9.55727481842041,2.8858470916748047,0.25843408703804016
1743758160.295,-9.605133056640625,2.881061315536499,0.27757734060287476
1743758160.374,-9.585989952087402,2.8714897632598877,0.14836029708385468
1743758160.374,-9.490273475646973,2.9145619869232178,0.16271774470806122
1743758160.374,-9.499845504760742,2.804488182067871,0.13878867030143738
1743758160.374,-9.46155834197998,2.8284173011779785,0.14836029708385468
1743758160.453,-9.480701446533203,2.804488182067871,0.12443122267723083
1743758160.453,-9.36584186553955,2.837989091873169,0.181861013174057
1743758160.453,-9.538131713867188,2.8619179725646973,0.12443122267723083
1743758160.453,-9.451987266540527,2.8762755393981934,0.2105759084224701
1743758160.532,-9.480701446533203,2.909776210784912,0.23450499773025513
1743758160.532,-9.437629699707031,2.8427748680114746,0.22493335604667664
1743758160.532,-9.518988609313965,2.837989091873169,0.29672059416770935
1743758160.532,-9.590775489807129,2.833203077316284,0.29672059416770935
1743758160.611,-9.46155834197998,2.8571321964263916,0.2727915346622467
1743758160.611,-9.705635070800781,2.8140599727630615,0.10528795421123505
1743758160.611,-9.442415237426758,2.8714897632598877,0.22971917688846588
1743758160.611,-9.533346176147461,2.866703987121582,0.07657305896282196
1743758160.689,-9.552489280700684,2.7997024059295654,0.22493335604667664
1743758160.689,-9.552489280700684,2.7853450775146484,0.14357449114322662
