                                                                                AngularVelocity                                                                 04.04.2511.32.4552  
Timestamp,GyroX,GyroY,GyroZ
1743758128.013,-1.6800000667572021,9.239999771118164,-3.009999990463257
1743758128.013,-1.6100000143051147,10.430000305175781,-4.480000019073486
1743758128.013,-1.2599999904632568,10.430000305175781,-4.409999847412109
1743758128.013,-0.49000000953674316,8.819999694824219,-4.059999942779541
1743758128.092,-0.699999988079071,7,-3.7799999713897705
1743758128.092,-2.450000047683716,4.760000228881836,-2.309999942779541
1743758128.092,-3.009999990463257,2.0299999713897705,-0.699999988079071
1743758128.092,-3.5,2.380000114440918,1.190000057220459
1743758128.17,-1.6800000667572021,2.309999942779541,3.2899999618530273
1743758128.17,5.320000171661377,4.199999809265137,1.6100000143051147
1743758128.17,9.59000015258789,5.53000020980835,-3.430000066757202
1743758128.17,11.550000190734863,5.389999866485596,-7.070000171661377
1743758128.249,8.890000343322754,6.440000057220459,-10.710000038146973
1743758128.249,10.149999618530273,8.819999694824219,-13.230000495910645
1743758128.249,8.960000038146973,10.569999694824219,-14.350000381469727
1743758128.249,5.460000038146973,10.149999618530273,-12.390000343322754
1743758128.328,-0.21000000834465027,8.399999618530273,-8.539999961853027
1743758128.328,-2.940000057220459,5.179999828338623,-5.039999961853027
1743758128.328,-3.2200000286102295,0.14000000059604645,-2.5899999141693115
1743758128.328,-4.059999942779541,-5.949999809265137,-0.9800000190734863
1743758128.407,-4.690000057220459,-10.989999771118164,0.3499999940395355
1743758128.407,-5.460000038146973,-11.270000457763672,0.9100000262260437
1743758128.407,-5.460000038146973,-8.119999885559082,2.0299999713897705
1743758128.407,-5.25,-5.53000020980835,3.2200000286102295
1743758128.486,-2.5899999141693115,-0.5600000023841858,3.7100000381469727
1743758128.486,-0.9100000262260437,2.5199999809265137,3.2899999618530273
1743758128.486,0.21000000834465027,5.809999942779541,3.430000066757202
1743758128.486,0.42000001668930054,9.029999732971191,2.240000009536743
1743758128.564,9.59000015258789,6.510000228881836,-0.9100000262260437
1743758128.564,14.630000114440918,4.690000057220459,-4.480000019073486
1743758128.564,11.829999923706055,4.340000152587891,-6.929999828338623
1743758128.564,12.039999961853027,2.309999942779541,-6.510000228881836
1743758128.643,12.109999656677246,0.21000000834465027,-3.7799999713897705
1743758128.643,10.569999694824219,-1.2599999904632568,-1.5399999618530273
1743758128.643,7.070000171661377,-1.399999976158142,1.9600000381469727
1743758128.643,1.5399999618530273,-3.2899999618530273,7.349999904632568
1743758128.722,-4.550000190734863,-4.480000019073486,14.5600004196167
1743758128.722,-3.430000066757202,-4.199999809265137,19.8799991607666
1743758128.722,3.5,-0.9800000190734863,20.719999313354492
1743758128.722,10.5,17.079999923706055,23.030000686645508
1743758128.8,21.559999465942383,3.2200000286102295,9.59000015258789
1743758128.8,19.040000915527344,2.240000009536743,3.8499999046325684
1743758128.8,12.8100004196167,15.050000190734863,-1.2599999904632568
1743758128.8,15.609999656677246,23.729999542236328,-2.5199999809265137
1743758128.879,22.190000534057617,28.84000015258789,-3.8499999046325684
1743758128.879,22.049999237060547,21.350000381469727,-2.870000123977661
1743758128.879,12.739999771118164,19.809999465942383,-1.190000057220459
1743758128.879,7.28000020980835,23.100000381469727,1.399999976158142
1743758128.958,8.819999694824219,13.230000495910645,4.96999979019165
1743758128.958,7.139999866485596,-3.2899999618530273,7.070000171661377
1743758128.958,4.550000190734863,-13.720000267028809,10.779999732971191
1743758128.958,0.5600000023841858,-17.010000228881836,14.980000495910645
1743758129.037,-9.100000381469727,-10.989999771118164,21.700000762939453
1743758129.037,-8.260000228881836,-10.920000076293945,26.600000381469727
1743758129.037,-5.949999809265137,-8.399999618530273,26.110000610351562
1743758129.037,2.450000047683716,-7.490000247955322,22.049999237060547
1743758129.116,10.850000381469727,-5.179999828338623,11.270000457763672
1743758129.116,16.030000686645508,-3.1500000953674316,2.0999999046325684
1743758129.116,20.229999542236328,7.070000171661377,-6.019999980926514
1743758129.116,25.40999984741211,18.059999465942383,-10.779999732971191
1743758129.194,28.84000015258789,14.279999732971191,-14
1743758129.194,26.880001068115234,7.420000076293945,-17.079999923706055
1743758129.194,21.139999389648438,2.240000009536743,-18.270000457763672
1743758129.194,18.40999984741211,-1.9600000381469727,-14.420000076293945
1743758129.273,18.34000015258789,-2.6600000858306885,-8.470000267028809
1743758129.273,15.260000228881836,-4.96999979019165,-4.340000152587891
1743758129.273,18.690000534057617,-6.860000133514404,-3.8499999046325684
1743758129.273,23.8700008392334,-9.869999885559082,-10.5
1743758129.352,17.780000686645508,-8.329999923706055,-13.020000457763672
1743758129.352,9.449999809265137,-2.6600000858306885,-10.010000228881836
1743758129.352,3.5,10.640000343322754,-1.190000057220459
1743758129.352,-2.7300000190734863,23.100000381469727,6.369999885559082
1743758129.43,-7.349999904632568,24.079999923706055,7.210000038146973
1743758129.43,-8.819999694824219,11.970000267028809,5.460000038146973
1743758129.43,-13.09000015258789,-2.6600000858306885,7.630000114440918
1743758129.43,-13.859999656677246,-10.5,15.050000190734863
1743758129.509,-11.0600004196167,-15.890000343322754,19.670000076293945
1743758129.509,-1.4700000286102295,-19.46000099182129,15.470000267028809
1743758129.509,7.139999866485596,-23.940000534057617,11.6899995803833
1743758129.509,12.600000381469727,-16.8700008392334,7.699999809265137
1743758129.588,19.25,0.2800000011920929,2.799999952316284
1743758129.588,26.950000762939453,9.869999885559082,-6.929999828338623
1743758129.588,25.549999237060547,6.720000267028809,-13.930000305175781
1743758129.588,25.6200008392334,-0.07000000029802322,-13.020000457763672
1743758129.667,23.030000686645508,0.14000000059604645,-10.850000381469727
1743758129.667,16.309999465942383,5.880000114440918,-11.34000015258789
1743758129.667,10.640000343322754,9.869999885559082,-12.529999732971191
1743758129.667,9.380000114440918,9.800000190734863,-13.09000015258789
1743758129.746,9.9399995803833,9.869999885559082,-14.279999732971191
1743758129.746,7.840000152587891,3.7100000381469727,-13.369999885559082
1743758129.746,3.640000104904175,1.3300000429153442,-8.260000228881836
1743758129.746,0.14000000059604645,3.0799999237060547,-1.190000057220459
1743758129.825,-3.009999990463257,7.070000171661377,4.199999809265137
1743758129.825,-10.430000305175781,8.890000343322754,7.070000171661377
1743758129.825,-10.289999961853027,7.769999980926514,5.949999809265137
1743758129.825,-4.480000019073486,8.260000228881836,2.5899999141693115
1743758129.903,0.5600000023841858,5.25,-1.0499999523162842
1743758129.903,0.7699999809265137,2.0999999046325684,-4.96999979019165
1743758129.903,3.1500000953674316,-0.699999988079071,-4.690000057220459
1743758129.903,5.670000076293945,-2.309999942779541,-4.059999942779541
1743758129.982,6.720000267028809,-2.0999999046325684,-5.25
1743758129.982,7.769999980926514,-6.159999847412109,-6.789999961853027
1743758129.982,6.720000267028809,-10.079999923706055,-6.650000095367432
1743758129.982,6.440000057220459,-14.90999984741211,-6.510000228881836
1743758130.06,2.240000009536743,-15.819999694824219,-4.829999923706055
1743758130.06,2.240000009536743,-15.539999961853027,-1.1200000047683716
1743758130.06,3.430000066757202,-14.420000076293945,0.8400000333786011
1743758130.06,5.740000247955322,-3.640000104904175,0.8400000333786011
1743758130.139,9.65999984741211,7.490000247955322,-5.670000076293945
1743758130.139,8.260000228881836,24.56999969482422,-15.260000228881836
1743758130.139,3.1500000953674316,39.20000076293945,-18.6200008392334
1743758130.139,-0.7699999809265137,42.4900016784668,-16.100000381469727
1743758130.218,-6.090000152587891,32.689998626708984,-6.929999828338623
1743758130.218,-16.520000457763672,13.300000190734863,1.75
1743758130.218,-21.84000015258789,4.059999942779541,5.809999942779541
1743758130.218,-24.010000228881836,-10.289999961853027,11.970000267028809
1743758130.296,-21.139999389648438,-14.84000015258789,15.539999961853027
1743758130.296,-14.5600004196167,-12.039999961853027,14.279999732971191
1743758130.296,-8.890000343322754,-7.909999847412109,8.329999923706055
1743758130.296,-9.869999885559082,-2.6600000858306885,1.399999976158142
1743758130.375,-6.650000095367432,-1.3300000429153442,-1.0499999523162842
1743758130.375,2.1700000762939453,3.569999933242798,-5.389999866485596
1743758130.375,6.019999980926514,6.300000190734863,-8.1899995803833
1743758130.375,7,4.059999942779541,-15.470000267028809
1743758130.454,3.2200000286102295,3.990000009536743,-16.65999984741211
1743758130.454,-1.5399999618530273,1.75,-12.949999809265137
1743758130.454,-2.1700000762939453,-1.8200000524520874,-5.389999866485596
1743758130.454,3.2899999618530273,-6.789999961853027,-1.6100000143051147
1743758130.533,7.840000152587891,-10.989999771118164,-3.7100000381469727
1743758130.533,14.90999984741211,-15.260000228881836,-10.079999923706055
1743758130.533,15.260000228881836,-12.109999656677246,-15.539999961853027
1743758130.533,5.809999942779541,-2.5899999141693115,-16.030000686645508
1743758130.612,-1.0499999523162842,8.890000343322754,-12.039999961853027
1743758130.612,-2.240000009536743,19.8799991607666,-8.960000038146973
1743758130.612,-2.380000114440918,23.170000076293945,-4.690000057220459
1743758130.612,-3.7100000381469727,21.700000762939453,-4.340000152587891
1743758130.69,0.7699999809265137,12.460000038146973,-5.110000133514404
1743758130.69,4.199999809265137,1.4700000286102295,-8.539999961853027
1743758130.69,4.550000190734863,-4.480000019073486,-9.380000114440918
1743758130.69,1.1200000047683716,-4.340000152587891,-7.139999866485596
1743758130.769,-4.690000057220459,-1.1200000047683716,-2.5899999141693115
1743758130.769,-8.890000343322754,0.699999988079071,2.0999999046325684
1743758130.769,-8.680000305175781,0.14000000059604645,2.1700000762939453
1743758130.769,-7.420000076293945,-0.2800000011920929,1.2599999904632568
1743758130.848,-4.550000190734863,-0.42000001668930054,-0.8400000333786011
1743758130.848,-4.760000228881836,-2.870000123977661,-2.940000057220459
1743758130.848,-4.619999885559082,-5.110000133514404,-2.7300000190734863
1743758130.848,-4.619999885559082,-3.569999933242798,-0.8400000333786011
1743758130.926,-4.760000228881836,-0.14000000059604645,0.3499999940395355
1743758130.926,-8.260000228881836,-3.1500000953674316,2.1700000762939453
1743758130.926,-8.260000228881836,-5.320000171661377,3.009999990463257
1743758130.926,-1.75,-1.9600000381469727,1.75
1743758131.005,2.0299999713897705,1.4700000286102295,-1.9600000381469727
1743758131.005,1.0499999523162842,4.900000095367432,-5.599999904632568
1743758131.005,0.9800000190734863,8.609999656677246,-7.349999904632568
1743758131.005,3.8499999046325684,12.25,-7.840000152587891
1743758131.084,5.460000038146973,17.149999618530273,-9.100000381469727
1743758131.084,3.7100000381469727,19.950000762939453,-11.970000267028809
1743758131.084,0.7699999809265137,18.059999465942383,-11.6899995803833
1743758131.084,-0.5600000023841858,11.270000457763672,-9.3100004196167
1743758131.163,-2.5899999141693115,3.9200000762939453,-4.340000152587891
1743758131.163,-3.8499999046325684,-1.5399999618530273,-1.8899999856948853
1743758131.163,-6.650000095367432,-4.690000057220459,-1.190000057220459
1743758131.163,-7.210000038146973,-3.990000009536743,0.14000000059604645
1743758131.242,-6.369999885559082,-2.7300000190734863,0
1743758131.242,-6.789999961853027,1.2599999904632568,-0.9100000262260437
1743758131.242,-7.840000152587891,4.199999809265137,0.5600000023841858
1743758131.242,-7.28000020980835,6.369999885559082,1.6100000143051147
1743758131.32,-8.119999885559082,5.740000247955322,1.5399999618530273
1743758131.32,-7.420000076293945,1.5399999618530273,1.8899999856948853
1743758131.32,-5.880000114440918,-0.2800000011920929,2.240000009536743
1743758131.32,-4.269999980926514,-3.569999933242798,2.450000047683716
1743758131.399,-4.269999980926514,-6.159999847412109,2.0999999046325684
1743758131.399,-3.990000009536743,-6.300000190734863,1.75
1743758131.399,-1.6800000667572021,-2.6600000858306885,0.6299999952316284
1743758131.399,0.6299999952316284,2.309999942779541,-2.380000114440918
1743758131.478,2.1700000762939453,8.1899995803833,-6.440000057220459
1743758131.478,3.640000104904175,13.369999885559082,-9.100000381469727
1743758131.478,3.640000104904175,17.149999618530273,-10.220000267028809
1743758131.478,1.75,17.219999313354492,-9.59000015258789
1743758131.556,-1.3300000429153442,12.390000343322754,-5.599999904632568
1743758131.556,-2.380000114440918,4.199999809265137,-0.699999988079071
1743758131.556,-2.5899999141693115,-2.6600000858306885,1.9600000381469727
1743758131.556,-2.5899999141693115,-5.670000076293945,2.309999942779541
1743758131.635,-4.130000114440918,-5.389999866485596,1.9600000381469727
1743758131.635,-4.550000190734863,-1.190000057220459,1.190000057220459
1743758131.635,-4.409999847412109,1.9600000381469727,2.309999942779541
1743758131.635,-4.409999847412109,4.829999923706055,2.5199999809265137
1743758131.714,-3.1500000953674316,6.579999923706055,0.8400000333786011
1743758131.714,-1.4700000286102295,7.28000020980835,-1.4700000286102295
1743758131.714,-0.07000000029802322,8.1899995803833,-3.5
1743758131.714,0.14000000059604645,7.699999809265137,-3.9200000762939453
1743758131.793,1.399999976158142,4.550000190734863,-3.2200000286102295
1743758131.793,1.399999976158142,2.1700000762939453,-1.190000057220459
1743758131.793,0.9800000190734863,1.2599999904632568,0.6299999952316284
1743758131.793,1.1200000047683716,-0.2800000011920929,0.699999988079071
1743758131.872,4.059999942779541,-1.399999976158142,-1.4700000286102295
1743758131.872,7.840000152587891,-2.450000047683716,-2.940000057220459
1743758131.872,10.079999923706055,0.21000000834465027,-3.3600001335144043
1743758131.872,10.850000381469727,4.059999942779541,-4.409999847412109
1743758131.95,12.039999961853027,7,-5.320000171661377
1743758131.95,12.109999656677246,6.650000095367432,-4.130000114440918
1743758131.95,13.510000228881836,5.320000171661377,-3.2200000286102295
1743758131.95,14.90999984741211,2.1700000762939453,-3.569999933242798
1743758132.029,14.5600004196167,-0.2800000011920929,-4.059999942779541
1743758132.029,14.5600004196167,-1.6800000667572021,-3.990000009536743
1743758132.029,14.279999732971191,-2.0999999046325684,-4.409999847412109
1743758132.029,11.6899995803833,-3.640000104904175,-4.690000057220459
1743758132.108,7.28000020980835,-4.690000057220459,-3.7100000381469727
1743758132.108,4.059999942779541,-6.159999847412109,-1.0499999523162842
1743758132.108,3.9200000762939453,-3.7799999713897705,1.1200000047683716
1743758132.108,4.760000228881836,-2.870000123977661,2.1700000762939453
1743758132.186,2.240000009536743,-2.5899999141693115,3.9200000762939453
1743758132.186,3.2200000286102295,-3.2200000286102295,5.389999866485596
1743758132.186,7.559999942779541,0.5600000023841858,4.059999942779541
1743758132.186,7.769999980926514,4.340000152587891,1.399999976158142
1743758132.265,7.070000171661377,5.179999828338623,-0.8400000333786011
1743758132.265,6.440000057220459,6.929999828338623,-2.309999942779541
1743758132.265,7.559999942779541,3.990000009536743,-1.8200000524520874
1743758132.265,7.420000076293945,0.7699999809265137,-1.4700000286102295
1743758132.344,5.809999942779541,-3.0799999237060547,-1.9600000381469727
1743758132.344,4.760000228881836,-9.170000076293945,-2.6600000858306885
1743758132.344,3.9200000762939453,-10.779999732971191,-2.940000057220459
1743758132.344,2.0999999046325684,-7.559999942779541,-3.7799999713897705
1743758132.422,2.1700000762939453,-2.870000123977661,-4.760000228881836
1743758132.422,2.240000009536743,1.4700000286102295,-4.619999885559082
1743758132.422,4.550000190734863,4.550000190734863,-3.8499999046325684
1743758132.422,4.550000190734863,7.980000019073486,-3.5
1743758132.501,3.2200000286102295,8.260000228881836,-3.2899999618530273
1743758132.501,0.6299999952316284,9.170000076293945,-2.380000114440918
1743758132.501,-1.6100000143051147,6.720000267028809,-0.6299999952316284
1743758132.501,-3.7799999713897705,0.5600000023841858,2.799999952316284
1743758132.58,-3.7799999713897705,-4.690000057220459,4.480000019073486
1743758132.58,-1.8200000524520874,-4.409999847412109,1.8200000524520874
1743758132.58,-2.5899999141693115,0.3499999940395355,-1.75
1743758132.58,-3.9200000762939453,3.7100000381469727,-4.199999809265137
1743758132.659,-4.269999980926514,7.980000019073486,-5.320000171661377
1743758132.659,-3.1500000953674316,7.630000114440918,-6.720000267028809
1743758132.659,-5.179999828338623,6.650000095367432,-6.090000152587891
1743758132.659,-7.980000019073486,4.480000019073486,-4.619999885559082
1743758132.738,-8.329999923706055,1.8200000524520874,-2.5899999141693115
1743758132.738,-8.75,0.5600000023841858,-0.49000000953674316
1743758132.738,-7.980000019073486,0.07000000029802322,1.0499999523162842
1743758132.738,-7.980000019073486,2.450000047683716,1.1200000047683716
1743758132.816,-7.420000076293945,0.9800000190734863,0.5600000023841858
1743758132.816,-8.329999923706055,1.75,1.4700000286102295
1743758132.816,-8.470000267028809,2.0999999046325684,2.240000009536743
1743758132.816,-6.650000095367432,4.550000190734863,1.75
1743758132.895,-4.550000190734863,5.110000133514404,0.42000001668930054
1743758132.895,-3.990000009536743,4.550000190734863,-0.9100000262260437
1743758132.895,-3.8499999046325684,3.2899999618530273,-2.6600000858306885
1743758132.895,-2.450000047683716,1.9600000381469727,-3.5
1743758132.974,-1.6800000667572021,0.9800000190734863,-3.1500000953674316
1743758132.974,-2.1700000762939453,0.3499999940395355,-2.5899999141693115
1743758132.974,-1.2599999904632568,0.9800000190734863,-2.240000009536743
1743758132.974,-0.5600000023841858,3.009999990463257,-1.8899999856948853
1743758133.052,-0.5600000023841858,3.9200000762939453,-1.3300000429153442
1743758133.052,-0.9800000190734863,4.619999885559082,-0.7699999809265137
1743758133.052,-0.07000000029802322,5.320000171661377,0.9800000190734863
1743758133.052,1.75,5.25,2.0299999713897705
1743758133.131,3.7799999713897705,4.829999923706055,1.5399999618530273
1743758133.131,5.809999942779541,4.409999847412109,-0.7699999809265137
1743758133.131,5.949999809265137,3.0799999237060547,-4.409999847412109
1743758133.131,3.7799999713897705,3.0799999237060547,-6.650000095367432
1743758133.21,2.799999952316284,1.8200000524520874,-9.380000114440918
1743758133.21,-2.240000009536743,0.9100000262260437,-9.029999732971191
1743758133.21,-6.159999847412109,-2.7300000190734863,-6.789999961853027
1743758133.21,-7.980000019073486,-3.9200000762939453,-4.829999923706055
1743758133.289,-8.260000228881836,-4.96999979019165,-2.380000114440918
1743758133.289,-8.399999618530273,-2.5199999809265137,-0.7699999809265137
1743758133.289,-9.3100004196167,-0.14000000059604645,-0.14000000059604645
1743758133.289,-10.289999961853027,4.130000114440918,0.5600000023841858
1743758133.368,-11.0600004196167,7.139999866485596,1.5399999618530273
1743758133.368,-12.039999961853027,8.329999923706055,1.8899999856948853
1743758133.368,-12.039999961853027,8.819999694824219,1.4700000286102295
1743758133.368,-12.529999732971191,8.539999961853027,-0.14000000059604645
1743758133.446,-13.510000228881836,8.609999656677246,-1.8200000524520874
1743758133.446,-13.720000267028809,7.420000076293945,-3.009999990463257
1743758133.446,-13.369999885559082,5.389999866485596,-4.130000114440918
1743758133.446,-12.739999771118164,4.550000190734863,-5.809999942779541
1743758133.525,-12.670000076293945,4.550000190734863,-6.019999980926514
1743758133.525,-12.600000381469727,6.159999847412109,-6.369999885559082
1743758133.525,-12.670000076293945,8.680000305175781,-6.019999980926514
1743758133.525,-11.550000190734863,9.800000190734863,-5.179999828338623
1743758133.604,-10.079999923706055,12.109999656677246,-4.900000095367432
1743758133.604,-9.170000076293945,11.550000190734863,-4.760000228881836
1743758133.604,-7.840000152587891,10.010000228881836,-4.550000190734863
1743758133.604,-6.860000133514404,8.819999694824219,-4.760000228881836
1743758133.682,-6.929999828338623,8.609999656677246,-5.179999828338623
1743758133.682,-6.440000057220459,7.349999904632568,-5.110000133514404
1743758133.682,-6.579999923706055,4.130000114440918,-4.409999847412109
1743758133.682,-5.110000133514404,2.309999942779541,-4.130000114440918
1743758133.761,-3.990000009536743,1.9600000381469727,-4.829999923706055
1743758133.761,-4.619999885559082,1.399999976158142,-6.019999980926514
1743758133.761,-4.690000057220459,1.190000057220459,-5.670000076293945
1743758133.761,-2.7300000190734863,0.8400000333786011,-4.619999885559082
1743758133.84,-1.8899999856948853,0.3499999940395355,-4.550000190734863
1743758133.84,-2.799999952316284,-0.7699999809265137,-4.550000190734863
1743758133.84,-3.640000104904175,-1.75,-3.430000066757202
1743758133.84,-3.569999933242798,-2.870000123977661,-1.190000057220459
1743758133.919,-3.1500000953674316,-3.7100000381469727,0.3499999940395355
1743758133.919,-2.6600000858306885,-1.6800000667572021,0.2800000011920929
1743758133.919,-1.8899999856948853,-0.42000001668930054,-0.3499999940395355
1743758133.919,-0.9100000262260437,0.14000000059604645,-1.0499999523162842
1743758133.998,0.8400000333786011,-1.0499999523162842,-1.1200000047683716
1743758133.998,2.0299999713897705,-0.6299999952316284,-1.8899999856948853
1743758133.998,1.6800000667572021,0.7699999809265137,-2.380000114440918
1743758133.998,1.6100000143051147,2.0999999046325684,-2.0999999046325684
1743758134.076,2.309999942779541,3.569999933242798,-2.799999952316284
1743758134.076,3.2899999618530273,4.690000057220459,-3.9200000762939453
1743758134.076,3.3600001335144043,7.769999980926514,-4.900000095367432
1743758134.076,1.4700000286102295,8.399999618530273,-4.480000019073486
1743758134.155,0.2800000011920929,6.929999828338623,-3.0799999237060547
1743758134.155,0,4.550000190734863,-1.5399999618530273
1743758134.155,-2.0299999713897705,0.21000000834465027,0.3499999940395355
1743758134.155,-3.7100000381469727,-2.799999952316284,1.2599999904632568
1743758134.234,-3.0799999237060547,-4.829999923706055,1.6100000143051147
1743758134.234,-2.0299999713897705,-4.900000095367432,0.5600000023841858
1743758134.234,-2.5899999141693115,-2.450000047683716,-0.8400000333786011
1743758134.234,-2.450000047683716,1.0499999523162842,-2.0999999046325684
1743758134.312,-3.0799999237060547,3.009999990463257,-1.8899999856948853
1743758134.312,-3.0799999237060547,3.0799999237060547,-1.8200000524520874
1743758134.312,-2.940000057220459,3.5,-2.1700000762939453
1743758134.312,-2.450000047683716,2.5199999809265137,-1.8200000524520874
1743758134.391,-1.4700000286102295,3.2200000286102295,-2.240000009536743
1743758134.391,-0.7699999809265137,2.380000114440918,-2.240000009536743
1743758134.391,-0.14000000059604645,3.0799999237060547,-2.6600000858306885
1743758134.391,-0.9100000262260437,5.110000133514404,-2.5899999141693115
1743758134.47,-1.5399999618530273,4.409999847412109,-2.240000009536743
1743758134.47,-1.6800000667572021,3.3600001335144043,-1.8200000524520874
1743758134.47,-1.5399999618530273,1.6800000667572021,-1.1200000047683716
1743758134.47,-2.240000009536743,2.309999942779541,-1.399999976158142
1743758134.548,-2.940000057220459,3.2899999618530273,-1.75
1743758134.548,-2.0299999713897705,2.799999952316284,-2.0299999713897705
1743758134.548,-2.799999952316284,1.75,-1.9600000381469727
1743758134.548,-2.309999942779541,-1.2599999904632568,-1.6800000667572021
1743758134.627,-2.5899999141693115,-0.42000001668930054,-1.3300000429153442
1743758134.627,-2.450000047683716,-1.1200000047683716,-2.0999999046325684
1743758134.627,-2.799999952316284,1.2599999904632568,-3.2899999618530273
1743758134.627,-2.380000114440918,1.9600000381469727,-3.0799999237060547
1743758134.706,-2.240000009536743,3.9200000762939453,-3.5
1743758134.706,-3.009999990463257,3.9200000762939453,-3.009999990463257
1743758134.706,-2.5199999809265137,3.8499999046325684,-2.1700000762939453
1743758134.706,-3.2899999618530273,2.5899999141693115,-1.6100000143051147
1743758134.785,-3.430000066757202,0.7699999809265137,-0.7699999809265137
1743758134.785,-3.009999990463257,-0.21000000834465027,-0.07000000029802322
1743758134.785,-2.870000123977661,-1.0499999523162842,-0.3499999940395355
1743758134.785,-2.870000123977661,0.8400000333786011,-0.7699999809265137
1743758134.864,-2.309999942779541,2.870000123977661,-1.1200000047683716
1743758134.864,-2.6600000858306885,5.039999961853027,-2.0299999713897705
1743758134.864,-2.6600000858306885,5.809999942779541,-2.799999952316284
1743758134.864,-1.8899999856948853,5.389999866485596,-2.940000057220459
1743758134.942,-0.699999988079071,4.550000190734863,-3.640000104904175
1743758134.942,-0.21000000834465027,2.940000057220459,-4.199999809265137
1743758134.942,-1.399999976158142,1.190000057220459,-3.1500000953674316
1743758134.942,-2.1700000762939453,-0.7699999809265137,-1.399999976158142
1743758135.021,-2.7300000190734863,-1.399999976158142,-0.699999988079071
1743758135.021,-2.870000123977661,-0.07000000029802322,-0.699999988079071
1743758135.021,-2.5199999809265137,2.870000123977661,-1.1200000047683716
1743758135.021,-1.6100000143051147,3.9200000762939453,-1.4700000286102295
1743758135.1,-0.2800000011920929,3.569999933242798,-1.8200000524520874
1743758135.1,0.5600000023841858,3.009999990463257,-1.9600000381469727
1743758135.1,0,3.009999990463257,-2.1700000762939453
1743758135.1,-0.6299999952316284,2.940000057220459,-1.8200000524520874
1743758135.178,-0.49000000953674316,2.940000057220459,-0.9800000190734863
1743758135.178,-0.3499999940395355,2.5899999141693115,-1.0499999523162842
1743758135.178,-0.42000001668930054,4.059999942779541,-2.0999999046325684
1743758135.178,-0.8400000333786011,4.059999942779541,-2.6600000858306885
1743758135.257,0.3499999940395355,3.7799999713897705,-2.870000123977661
1743758135.257,-0.2800000011920929,4.130000114440918,-2.240000009536743
1743758135.257,-1.8899999856948853,5.039999961853027,-0.699999988079071
1743758135.257,-3.1500000953674316,6.300000190734863,0.2800000011920929
1743758135.335,-1.1200000047683716,5.880000114440918,0.07000000029802322
1743758135.335,0,4.480000019073486,-1.5399999618530273
1743758135.335,0.6299999952316284,1.9600000381469727,-2.940000057220459
1743758135.335,-0.699999988079071,1.6800000667572021,-3.7100000381469727
1743758135.414,-2.0299999713897705,3.009999990463257,-3.009999990463257
1743758135.414,-3.7100000381469727,4.829999923706055,-2.380000114440918
1743758135.414,-3.569999933242798,4.96999979019165,-1.8200000524520874
1743758135.414,-2.0299999713897705,4.059999942779541,-2.309999942779541
1743758135.493,0.14000000059604645,1.8899999856948853,-3.7100000381469727
1743758135.493,0.5600000023841858,-0.07000000029802322,-3.640000104904175
1743758135.493,-0.7699999809265137,-0.699999988079071,-2.799999952316284
1743758135.493,-1.6100000143051147,0.2800000011920929,-1.0499999523162842
1743758135.572,-1.6100000143051147,1.4700000286102295,0.14000000059604645
1743758135.572,-1.8899999856948853,3.2200000286102295,-0.9100000262260437
1743758135.572,-2.240000009536743,3.1500000953674316,-0.8400000333786011
1743758135.572,-2.1700000762939453,2.240000009536743,-0.42000001668930054
1743758135.651,-1.399999976158142,1.399999976158142,-0.14000000059604645
1743758135.651,-1.1200000047683716,2.6600000858306885,-0.21000000834465027
1743758135.651,-1.399999976158142,3.0799999237060547,0.14000000059604645
1743758135.651,-0.9100000262260437,3.2899999618530273,-0.07000000029802322
1743758135.73,0.8400000333786011,3.569999933242798,-1.190000057220459
1743758135.73,1.75,5.740000247955322,-2.870000123977661
1743758135.73,0.7699999809265137,7.490000247955322,-3.1500000953674316
1743758135.73,-0.07000000029802322,7.420000076293945,-2.309999942779541
1743758135.808,-0.5600000023841858,4.900000095367432,-0.9100000262260437
1743758135.808,-1.5399999618530273,2.870000123977661,0.21000000834465027
1743758135.808,-1.9600000381469727,2.309999942779541,0.6299999952316284
1743758135.808,-2.6600000858306885,2.7300000190734863,1.190000057220459
1743758135.887,-2.380000114440918,1.8200000524520874,1.399999976158142
1743758135.887,-2.0999999046325684,2.940000057220459,0.14000000059604645
1743758135.887,-2.870000123977661,3.640000104904175,0.21000000834465027
1743758135.887,-3.3600001335144043,5.039999961853027,-0.49000000953674316
1743758135.965,-4.760000228881836,5.53000020980835,-0.9100000262260437
1743758135.965,-4.829999923706055,3.990000009536743,-0.8400000333786011
1743758135.965,-5.25,4.900000095367432,-0.5600000023841858
1743758135.965,-5.110000133514404,2.240000009536743,-0.21000000834465027
1743758136.044,-4.760000228881836,2.1700000762939453,-0.2800000011920929
1743758136.044,-4.480000019073486,1.1200000047683716,-0.21000000834465027
1743758136.044,-3.2899999618530273,3.990000009536743,-1.1200000047683716
1743758136.044,-3.8499999046325684,6.860000133514404,-1.75
1743758136.123,-4.409999847412109,8.399999618530273,-2.450000047683716
1743758136.123,-4.900000095367432,8.75,-2.0299999713897705
1743758136.123,-4.900000095367432,7.559999942779541,-0.6299999952316284
1743758136.123,-5.53000020980835,5.460000038146973,0.6299999952316284
1743758136.202,-4.269999980926514,1.75,1.5399999618530273
1743758136.202,-4.059999942779541,-1.399999976158142,1.6100000143051147
1743758136.202,-2.870000123977661,-2.7300000190734863,1.5399999618530273
1743758136.202,-1.399999976158142,-1.0499999523162842,0.3499999940395355
1743758136.281,0,1.0499999523162842,-1.8200000524520874
1743758136.281,0.5600000023841858,3.8499999046325684,-4.480000019073486
1743758136.281,0.699999988079071,4.760000228881836,-4.900000095367432
1743758136.281,1.4700000286102295,4.269999980926514,-4.760000228881836
1743758136.36,1.2599999904632568,2.0299999713897705,-4.760000228881836
1743758136.36,0.699999988079071,1.6100000143051147,-4.269999980926514
1743758136.36,-0.5600000023841858,0.699999988079071,-2.5899999141693115
1743758136.36,-2.380000114440918,-0.07000000029802322,-0.3499999940395355
1743758136.438,-1.6100000143051147,-0.9800000190734863,0.8400000333786011
1743758136.438,-1.8200000524520874,1.0499999523162842,0.7699999809265137
1743758136.438,-1.399999976158142,2.5899999141693115,-0.14000000059604645
1743758136.438,-1.3300000429153442,4.96999979019165,-0.9800000190734863
1743758136.517,1.0499999523162842,4.059999942779541,-1.9600000381469727
1743758136.517,1.6100000143051147,3.9200000762939453,-3.569999933242798
1743758136.517,1.190000057220459,3.2899999618530273,-4.900000095367432
1743758136.517,1.0499999523162842,3.3600001335144043,-4.96999979019165
1743758136.595,1.2599999904632568,1.75,-4.619999885559082
1743758136.595,0.7699999809265137,0.699999988079071,-4.059999942779541
1743758136.595,0.6299999952316284,0.699999988079071,-3.3600001335144043
1743758136.595,-0.699999988079071,0.9100000262260437,-2.0299999713897705
1743758136.674,-2.240000009536743,0.2800000011920929,-0.8400000333786011
1743758136.674,-2.870000123977661,0.14000000059604645,0.49000000953674316
1743758136.674,-3.0799999237060547,0,1.8899999856948853
1743758136.674,-2.870000123977661,0.7699999809265137,1.9600000381469727
1743758136.753,-3.009999990463257,2.7300000190734863,1.5399999618530273
1743758136.753,-1.8200000524520874,4.199999809265137,1.0499999523162842
1743758136.753,-0.699999988079071,6.090000152587891,-0.21000000834465027
1743758136.753,0.42000001668930054,5.670000076293945,-2.240000009536743
1743758136.832,1.190000057220459,6.579999923706055,-3.8499999046325684
1743758136.832,1.3300000429153442,5.670000076293945,-3.7799999713897705
1743758136.832,-0.2800000011920929,4.550000190734863,-2.5899999141693115
1743758136.832,-1.1200000047683716,2.450000047683716,-1.2599999904632568
1743758136.911,-2.0299999713897705,1.190000057220459,1.399999976158142
1743758136.911,-1.5399999618530273,0.2800000011920929,3.1500000953674316
1743758136.911,-0.6299999952316284,1.4700000286102295,3.3600001335144043
1743758136.911,1.6100000143051147,2.870000123977661,2.5899999141693115
1743758136.99,2.1700000762939453,4.480000019073486,1.399999976158142
1743758136.99,1.6100000143051147,3.990000009536743,0.2800000011920929
1743758136.99,1.8200000524520874,4.409999847412109,-0.3499999940395355
1743758136.99,0.2800000011920929,3.2200000286102295,-0.6299999952316284
1743758137.068,-2.5199999809265137,0.3499999940395355,-0.14000000059604645
1743758137.068,-4.690000057220459,-1.9600000381469727,-0.3499999940395355
1743758137.068,-5.460000038146973,-2.799999952316284,-1.1200000047683716
1743758137.068,-6.860000133514404,-0.9800000190734863,-1.75
1743758137.147,-8.1899995803833,0.699999988079071,-1.8899999856948853
1743758137.147,-8.960000038146973,3.7100000381469727,-1.190000057220459
1743758137.147,-9.59000015258789,6.230000019073486,0.21000000834465027
1743758137.147,-11.199999809265137,8.399999618530273,1.190000057220459
1743758137.225,-10.850000381469727,9.239999771118164,1.2599999904632568
1743758137.225,-9.59000015258789,8.399999618530273,0.9100000262260437
1743758137.225,-8.260000228881836,8.470000267028809,-0.14000000059604645
1743758137.225,-8.470000267028809,9.449999809265137,-0.6299999952316284
1743758137.304,-8.890000343322754,10.430000305175781,-0.9800000190734863
1743758137.304,-9.59000015258789,9.449999809265137,-1.1200000047683716
1743758137.304,-9.029999732971191,6.369999885559082,-1.399999976158142
1743758137.304,-8.329999923706055,5.25,-2.6600000858306885
1743758137.383,-7.559999942779541,3.8499999046325684,-3.9200000762939453
1743758137.383,-6.369999885559082,3.7100000381469727,-4.480000019073486
1743758137.383,-6.159999847412109,4.130000114440918,-3.7799999713897705
1743758137.383,-6.230000019073486,4.829999923706055,-2.5199999809265137
1743758137.461,-5.949999809265137,6.159999847412109,-1.4700000286102295
1743758137.461,-4.340000152587891,6.230000019073486,-1.399999976158142
1743758137.461,-3.0799999237060547,4.760000228881836,-1.4700000286102295
1743758137.461,-1.8899999856948853,3.9200000762939453,-1.190000057220459
1743758137.54,-2.0299999713897705,2.1700000762939453,-0.5600000023841858
1743758137.54,-2.1700000762939453,1.399999976158142,0.2800000011920929
1743758137.54,-1.1200000047683716,0.21000000834465027,0.3499999940395355
1743758137.54,-0.3499999940395355,-0.699999988079071,0.14000000059604645
1743758137.619,2.0299999713897705,-0.2800000011920929,-1.2599999904632568
1743758137.619,3.5,0.699999988079071,-3.2899999618530273
1743758137.619,3.7100000381469727,1.6800000667572021,-4.96999979019165
1743758137.619,3.009999990463257,3.0799999237060547,-5.179999828338623
1743758137.698,2.5899999141693115,3.8499999046325684,-4.409999847412109
1743758137.698,2.0999999046325684,4.619999885559082,-3.569999933242798
1743758137.698,1.75,3.7799999713897705,-3.009999990463257
1743758137.698,0.3499999940395355,2.450000047683716,-2.5199999809265137
1743758137.777,0.2800000011920929,1.3300000429153442,-1.2599999904632568
1743758137.777,0.42000001668930054,-0.07000000029802322,-0.07000000029802322
1743758137.777,-1.0499999523162842,-0.8400000333786011,0.2800000011920929
1743758137.777,-0.9800000190734863,-0.9100000262260437,0.5600000023841858
1743758137.856,-1.0499999523162842,-0.14000000059604645,-0.07000000029802322
1743758137.856,-1.5399999618530273,0.14000000059604645,-0.6299999952316284
1743758137.856,-1.399999976158142,1.8899999856948853,-1.8200000524520874
1743758137.856,-0.49000000953674316,3.430000066757202,-3.2899999618530273
1743758137.934,0.42000001668930054,5.110000133514404,-5.179999828338623
1743758137.934,0.2800000011920929,5.389999866485596,-6.440000057220459
1743758137.934,0,4.269999980926514,-6.090000152587891
1743758137.934,-0.7699999809265137,2.870000123977661,-4.829999923706055
1743758138.013,-2.450000047683716,1.6100000143051147,-3.0799999237060547
1743758138.013,-4.550000190734863,0.21000000834465027,-1.75
1743758138.013,-5.110000133514404,-1.399999976158142,-0.2800000011920929
1743758138.013,-4.829999923706055,-1.75,0.7699999809265137
1743758138.091,-4.690000057220459,0,0.49000000953674316
1743758138.091,-4.059999942779541,3.1500000953674316,-0.5600000023841858
1743758138.091,-2.1700000762939453,6.230000019073486,-1.8899999856948853
1743758138.091,-0.8400000333786011,7.980000019073486,-3.5
1743758138.17,0.21000000834465027,8.260000228881836,-5.880000114440918
1743758138.17,0.42000001668930054,7.630000114440918,-7.769999980926514
1743758138.17,-0.2800000011920929,6.090000152587891,-7.909999847412109
1743758138.17,-1.4700000286102295,2.870000123977661,-6.650000095367432
1743758138.249,-2.870000123977661,-0.699999988079071,-5.389999866485596
1743758138.249,-3.7100000381469727,-3.2899999618530273,-4.340000152587891
1743758138.249,-4.829999923706055,-4.900000095367432,-3.2200000286102295
1743758138.249,-4.760000228881836,-4.340000152587891,-2.380000114440918
1743758138.328,-4.059999942779541,-2.7300000190734863,-1.8200000524520874
1743758138.328,-3.3600001335144043,-0.3499999940395355,-2.1700000762939453
1743758138.328,-3.3600001335144043,2.6600000858306885,-2.0299999713897705
1743758138.328,-2.6600000858306885,3.9200000762939453,-1.4700000286102295
1743758138.407,-1.6800000667572021,4.829999923706055,-1.5399999618530273
1743758138.407,-0.7699999809265137,4.269999980926514,-2.380000114440918
1743758138.407,-0.6299999952316284,4.480000019073486,-3.7799999713897705
1743758138.407,-1.1200000047683716,3.1500000953674316,-4.199999809265137
1743758138.486,-0.7699999809265137,1.2599999904632568,-3.2200000286102295
1743758138.486,-0.9800000190734863,-1.8200000524520874,-2.0299999713897705
1743758138.486,-1.6100000143051147,-4.340000152587891,-2.0999999046325684
1743758138.486,-0.9100000262260437,-3.7799999713897705,-2.870000123977661
1743758138.564,-0.14000000059604645,-1.399999976158142,-3.569999933242798
1743758138.564,0.9100000262260437,2.240000009536743,-3.990000009536743
1743758138.564,1.399999976158142,4.900000095367432,-4.409999847412109
1743758138.564,1.2599999904632568,4.480000019073486,-4.130000114440918
1743758138.643,1.0499999523162842,3.430000066757202,-4.059999942779541
1743758138.643,0.49000000953674316,3.430000066757202,-3.7799999713897705
1743758138.643,-0.7699999809265137,3.2899999618530273,-3.2200000286102295
1743758138.643,-2.5199999809265137,2.240000009536743,-2.0299999713897705
1743758138.721,-2.870000123977661,0.49000000953674316,-0.5600000023841858
1743758138.721,-3.2200000286102295,-0.5600000023841858,-0.21000000834465027
1743758138.721,-3.9200000762939453,-1.5399999618530273,-0.49000000953674316
1743758138.721,-3.1500000953674316,-1.6100000143051147,-0.699999988079071
1743758138.8,-1.5399999618530273,-1.1200000047683716,-0.9800000190734863
1743758138.8,-1.1200000047683716,1.6100000143051147,-1.1200000047683716
1743758138.8,-1.6800000667572021,3.0799999237060547,-2.0299999713897705
1743758138.8,-1.5399999618530273,3.0799999237060547,-3.2200000286102295
1743758138.879,-0.6299999952316284,1.8200000524520874,-3.2899999618530273
1743758138.879,-0.21000000834465027,0.7699999809265137,-2.450000047683716
1743758138.879,-1.3300000429153442,0.3499999940395355,-2.5899999141693115
1743758138.879,-1.1200000047683716,0,-2.6600000858306885
1743758138.958,-0.21000000834465027,0,-2.5899999141693115
1743758138.958,-0.14000000059604645,0.42000001668930054,-2.5199999809265137
1743758138.958,-0.8400000333786011,1.4700000286102295,-2.240000009536743
1743758138.958,-0.5600000023841858,2.799999952316284,-1.8899999856948853
1743758139.037,-0.49000000953674316,4.340000152587891,-1.5399999618530273
1743758139.037,-0.3499999940395355,4.96999979019165,-1.399999976158142
1743758139.037,0.21000000834465027,5.670000076293945,-1.6100000143051147
1743758139.037,0.3499999940395355,4.480000019073486,-1.6100000143051147
1743758139.116,0.9100000262260437,4.059999942779541,-1.9600000381469727
1743758139.116,0.699999988079071,4.059999942779541,-2.5899999141693115
1743758139.116,-0.42000001668930054,4.760000228881836,-2.5899999141693115
1743758139.116,-1.6100000143051147,4.340000152587891,-2.1700000762939453
1743758139.194,-1.9600000381469727,1.8899999856948853,-1.6100000143051147
1743758139.194,-1.1200000047683716,0.21000000834465027,-1.9600000381469727
1743758139.194,-1.0499999523162842,0,-2.799999952316284
1743758139.194,-1.6800000667572021,1.399999976158142,-2.799999952316284
1743758139.273,-1.9600000381469727,2.1700000762939453,-1.6800000667572021
1743758139.273,-1.6800000667572021,2.1700000762939453,-0.14000000059604645
1743758139.273,-2.1700000762939453,2.450000047683716,0
1743758139.273,-2.380000114440918,1.3300000429153442,-0.2800000011920929
1743758139.351,-1.2599999904632568,1.399999976158142,0
1743758139.351,-0.2800000011920929,1.399999976158142,0
1743758139.351,-0.14000000059604645,1.8200000524520874,-0.2800000011920929
1743758139.351,0,1.75,-0.9100000262260437
1743758139.43,1.3300000429153442,2.1700000762939453,-1.8899999856948853
1743758139.43,2.0299999713897705,2.450000047683716,-3.2899999618530273
1743758139.43,2.309999942779541,3.7100000381469727,-4.269999980926514
1743758139.43,2.5899999141693115,5.320000171661377,-4.690000057220459
1743758139.509,2.1700000762939453,5.110000133514404,-4.480000019073486
1743758139.509,1.3300000429153442,3.7100000381469727,-3.9200000762939453
1743758139.509,0.699999988079071,1.5399999618530273,-2.870000123977661
1743758139.509,-0.2800000011920929,-0.2800000011920929,-1.1200000047683716
1743758139.587,-0.9100000262260437,-0.6299999952316284,0.49000000953674316
1743758139.587,-1.6800000667572021,0.07000000029802322,1.6100000143051147
1743758139.587,-1.4700000286102295,0.3499999940395355,2.0299999713897705
1743758139.587,0,0.49000000953674316,1.6100000143051147
1743758139.666,1.3300000429153442,0.6299999952316284,0.2800000011920929
1743758139.666,1.6800000667572021,1.8899999856948853,-1.1200000047683716
1743758139.666,2.1700000762939453,3.0799999237060547,-1.8200000524520874
1743758139.666,2.7300000190734863,3.9200000762939453,-1.9600000381469727
1743758139.745,3.2899999618530273,4.550000190734863,-3.009999990463257
1743758139.745,3.0799999237060547,4.409999847412109,-4.269999980926514
1743758139.745,2.450000047683716,2.6600000858306885,-4.269999980926514
1743758139.745,1.2599999904632568,0.42000001668930054,-2.5199999809265137
1743758139.824,0.07000000029802322,-1.9600000381469727,0.14000000059604645
1743758139.824,-1.3300000429153442,-2.940000057220459,1.8899999856948853
1743758139.824,-1.5399999618530273,-1.4700000286102295,2.5899999141693115
1743758139.824,-0.6299999952316284,1.5399999618530273,2.5899999141693115
1743758139.903,0.699999988079071,4.619999885559082,2.309999942779541
1743758139.903,3.2200000286102295,7.980000019073486,1.1200000047683716
1743758139.903,5.809999942779541,11.480000495910645,-1.190000057220459
1743758139.903,6.650000095367432,13.649999618530273,-2.799999952316284
1743758139.981,6.369999885559082,11.0600004196167,-3.8499999046325684
1743758139.981,7.980000019073486,7.769999980926514,-4.409999847412109
1743758139.981,9.3100004196167,3.990000009536743,-4.550000190734863
1743758139.981,9.239999771118164,-0.9100000262260437,-1.75
1743758140.06,9.170000076293945,-3.430000066757202,0.8400000333786011
1743758140.06,11.0600004196167,-6.230000019073486,1.8200000524520874
1743758140.06,13.859999656677246,-6.159999847412109,0.699999988079071
1743758140.06,15.470000267028809,-5.599999904632568,0.2800000011920929
1743758140.139,17.290000915527344,-4.760000228881836,1.5399999618530273
1743758140.139,20.3700008392334,-3.8499999046325684,2.799999952316284
1743758140.139,21.420000076293945,-2.380000114440918,3.2200000286102295
1743758140.139,21.420000076293945,0.21000000834465027,2.5899999141693115
1743758140.217,21.06999969482422,3.3600001335144043,2.1700000762939453
1743758140.217,22.81999969482422,5.039999961853027,2.0299999713897705
1743758140.217,25.690000534057617,4.619999885559082,1.6800000667572021
1743758140.217,27.09000015258789,1.75,1.0499999523162842
1743758140.296,27.649999618530273,-1.9600000381469727,0.3499999940395355
1743758140.296,28.770000457763672,-4.760000228881836,-0.49000000953674316
1743758140.296,27.229999542236328,-6.929999828338623,-0.8400000333786011
1743758140.296,25.059999465942383,-7.909999847412109,-0.3499999940395355
1743758140.375,23.799999237060547,-7.909999847412109,-0.42000001668930054
1743758140.375,24.360000610351562,-7.070000171661377,-2.450000047683716
1743758140.375,23.3799991607666,-7.139999866485596,-4.199999809265137
1743758140.375,22.469999313354492,-6.720000267028809,-4.690000057220459
1743758140.454,19.950000762939453,-4.829999923706055,-4.829999923706055
1743758140.454,17.639999389648438,-4.269999980926514,-4.619999885559082
1743758140.454,15.470000267028809,-3.2200000286102295,-3.430000066757202
1743758140.454,13.020000457763672,-3.990000009536743,-1.4700000286102295
1743758140.533,10.5,-4.690000057220459,1.1200000047683716
1743758140.533,8.329999923706055,-5.809999942779541,3.0799999237060547
1743758140.533,6.789999961853027,-5.25,3.3600001335144043
1743758140.533,4.619999885559082,-3.0799999237060547,1.5399999618530273
1743758140.611,3.009999990463257,-0.21000000834465027,0.14000000059604645
1743758140.611,2.0299999713897705,2.450000047683716,-0.7699999809265137
1743758140.611,0.14000000059604645,4.900000095367432,-1.9600000381469727
1743758140.611,-1.5399999618530273,6.300000190734863,-3.2200000286102295
1743758140.69,-3.7100000381469727,7.420000076293945,-3.640000104904175
1743758140.69,-6.230000019073486,6.650000095367432,-4.199999809265137
1743758140.69,-9.520000457763672,5.389999866485596,-3.430000066757202
1743758140.69,-10.569999694824219,2.450000047683716,-2.240000009536743
1743758140.769,-12.039999961853027,2.380000114440918,-1.2599999904632568
1743758140.769,-14,1.8899999856948853,0.14000000059604645
1743758140.769,-14.279999732971191,2.5899999141693115,0.2800000011920929
1743758140.769,-14.279999732971191,3.9200000762939453,0.9100000262260437
1743758140.847,-13.720000267028809,4.690000057220459,1.5399999618530273
1743758140.847,-14.279999732971191,6.300000190734863,1.5399999618530273
1743758140.847,-13.649999618530273,5.110000133514404,1.0499999523162842
1743758140.847,-12.949999809265137,6.230000019073486,0.07000000029802322
1743758140.926,-12.739999771118164,6.789999961853027,-0.49000000953674316
1743758140.926,-11.829999923706055,7.840000152587891,-1.75
1743758140.926,-10.920000076293945,6.579999923706055,-3.3600001335144043
1743758140.926,-8.329999923706055,5.670000076293945,-5.039999961853027
1743758141.005,-9.239999771118164,6.019999980926514,-6.440000057220459
1743758141.005,-10.359999656677246,5.179999828338623,-6.230000019073486
1743758141.005,-10.359999656677246,5.039999961853027,-5.320000171661377
1743758141.005,-8.819999694824219,4.059999942779541,-3.8499999046325684
1743758141.084,-8.260000228881836,5.670000076293945,-3.009999990463257
1743758141.084,-7.699999809265137,6.369999885559082,-2.0999999046325684
1743758141.084,-6.650000095367432,5.110000133514404,-1.9600000381469727
1743758141.084,-6.090000152587891,4.619999885559082,-1.3300000429153442
1743758141.163,-5.599999904632568,4.690000057220459,-0.9800000190734863
1743758141.163,-5.740000247955322,5.809999942779541,-1.190000057220459
1743758141.163,-4.900000095367432,5.320000171661377,-2.240000009536743
1743758141.163,-4.550000190734863,5.389999866485596,-3.7799999713897705
1743758141.241,-5.179999828338623,5.179999828338623,-5.110000133514404
1743758141.241,-5.320000171661377,5.110000133514404,-6.440000057220459
1743758141.241,-6.300000190734863,4.059999942779541,-6.230000019073486
1743758141.241,-6.929999828338623,2.1700000762939453,-4.760000228881836
1743758141.32,-7.630000114440918,1.3300000429153442,-3.2899999618530273
1743758141.32,-7.699999809265137,0.5600000023841858,-2.940000057220459
1743758141.32,-7.699999809265137,2.0299999713897705,-2.799999952316284
1743758141.32,-7.559999942779541,1.8200000524520874,-1.399999976158142
1743758141.399,-6.789999961853027,3.569999933242798,-0.9100000262260437
1743758141.399,-7,3.430000066757202,-0.14000000059604645
1743758141.399,-6.300000190734863,3.5,-0.21000000834465027
1743758141.399,-6.369999885559082,3.430000066757202,-0.699999988079071
1743758141.477,-5.179999828338623,1.4700000286102295,-1.190000057220459
1743758141.477,-5.599999904632568,2.240000009536743,-2.450000047683716
1743758141.477,-4.480000019073486,2.1700000762939453,-2.870000123977661
1743758141.477,-4.96999979019165,3.569999933242798,-2.7300000190734863
1743758141.556,-4.480000019073486,1.4700000286102295,-2.1700000762939453
1743758141.556,-2.7300000190734863,1.9600000381469727,-2.7300000190734863
1743758141.556,-1.4700000286102295,1.6800000667572021,-3.2899999618530273
1743758141.556,-0.9100000262260437,2.5199999809265137,-3.7799999713897705
1743758141.635,-1.0499999523162842,3.2200000286102295,-3.009999990463257
1743758141.635,-0.14000000059604645,4.619999885559082,-2.450000047683716
1743758141.635,-0.3499999940395355,6.230000019073486,-3.2899999618530273
1743758141.635,-0.5600000023841858,6.929999828338623,-4.550000190734863
1743758141.713,-0.6299999952316284,6.159999847412109,-5.110000133514404
1743758141.713,-1.399999976158142,4.619999885559082,-4.480000019073486
1743758141.713,-3.430000066757202,2.5899999141693115,-3.2899999618530273
1743758141.713,-4.760000228881836,0.5600000023841858,-1.5399999618530273
1743758141.792,-4.96999979019165,-0.9100000262260437,-0.49000000953674316
1743758141.792,-5.25,-0.9100000262260437,0
1743758141.792,-4.480000019073486,-0.42000001668930054,-0.21000000834465027
1743758141.792,-3.2899999618530273,1.2599999904632568,-0.6299999952316284
1743758141.871,-3.569999933242798,2.5899999141693115,-0.5600000023841858
1743758141.871,-3.990000009536743,4.690000057220459,-0.9800000190734863
1743758141.871,-4.900000095367432,5.110000133514404,-0.8400000333786011
1743758141.871,-3.5,4.130000114440918,-0.6299999952316284
1743758141.95,-3.0799999237060547,2.380000114440918,-1.5399999618530273
1743758141.95,-1.8200000524520874,1.4700000286102295,-2.5199999809265137
1743758141.95,-2.0299999713897705,2.5899999141693115,-3.3600001335144043
1743758141.95,-2.799999952316284,2.870000123977661,-3.1500000953674316
1743758142.029,-2.940000057220459,3.2200000286102295,-2.799999952316284
1743758142.029,-2.940000057220459,2.940000057220459,-2.240000009536743
1743758142.029,-2.5199999809265137,3.1500000953674316,-2.309999942779541
1743758142.029,-2.5899999141693115,3.9200000762939453,-2.1700000762939453
1743758142.107,-1.3300000429153442,3.2200000286102295,-2.309999942779541
1743758142.107,-1.190000057220459,4.409999847412109,-2.5899999141693115
1743758142.107,-1.4700000286102295,4.550000190734863,-2.6600000858306885
1743758142.107,-2.240000009536743,6.090000152587891,-2.799999952316284
1743758142.186,-2.0999999046325684,6.369999885559082,-2.799999952316284
1743758142.186,-2.0999999046325684,6.090000152587891,-2.5899999141693115
1743758142.186,-2.5199999809265137,3.9200000762939453,-2.240000009536743
1743758142.186,-2.940000057220459,1.8899999856948853,-2.7300000190734863
1743758142.265,-2.5899999141693115,1.4700000286102295,-2.799999952316284
1743758142.265,-3.2899999618530273,1.0499999523162842,-1.9600000381469727
1743758142.265,-4.480000019073486,0.9100000262260437,-1.1200000047683716
1743758142.265,-4.130000114440918,0.42000001668930054,-0.6299999952316284
1743758142.343,-3.7100000381469727,1.0499999523162842,-0.5600000023841858
1743758142.343,-4.619999885559082,0.49000000953674316,-0.14000000059604645
1743758142.343,-4.96999979019165,0.2800000011920929,0.5600000023841858
1743758142.343,-3.2200000286102295,1.1200000047683716,-0.07000000029802322
1743758142.422,-2.0999999046325684,3.1500000953674316,-1.5399999618530273
1743758142.422,-1.190000057220459,4.059999942779541,-2.940000057220459
1743758142.422,-2.309999942779541,4.340000152587891,-3.3600001335144043
1743758142.422,-1.75,3.5,-3.1500000953674316
1743758142.501,-2.5899999141693115,3.640000104904175,-3.3600001335144043
1743758142.501,-3.3600001335144043,2.240000009536743,-2.7300000190734863
1743758142.501,-3.0799999237060547,1.9600000381469727,-2.380000114440918
1743758142.501,-2.6600000858306885,1.2599999904632568,-2.940000057220459
1743758142.58,-2.0299999713897705,2.7300000190734863,-3.569999933242798
1743758142.58,-2.380000114440918,3.9200000762939453,-3.640000104904175
1743758142.58,-3.1500000953674316,4.900000095367432,-3.2899999618530273
1743758142.58,-3.3600001335144043,3.9200000762939453,-2.6600000858306885
1743758142.659,-3.3600001335144043,3.009999990463257,-2.799999952316284
1743758142.659,-3.2899999618530273,3.009999990463257,-2.940000057220459
1743758142.659,-3.990000009536743,3.430000066757202,-2.799999952316284
1743758142.659,-4.690000057220459,4.199999809265137,-2.5899999141693115
1743758142.737,-5.740000247955322,3.430000066757202,-1.399999976158142
1743758142.737,-5.53000020980835,1.6100000143051147,0.2800000011920929
1743758142.737,-5.320000171661377,-0.9100000262260437,0.9100000262260437
1743758142.737,-3.990000009536743,-1.75,0
1743758142.816,-3.8499999046325684,-1.6100000143051147,-0.9800000190734863
1743758142.816,-3.7799999713897705,-0.49000000953674316,-1.2599999904632568
1743758142.816,-3.8499999046325684,1.8899999856948853,-1.8899999856948853
1743758142.816,-2.870000123977661,4.760000228881836,-2.450000047683716
1743758142.895,-3.3600001335144043,6.510000228881836,-2.799999952316284
1743758142.895,-3.0799999237060547,5.389999866485596,-1.9600000381469727
1743758142.895,-1.75,3.5,-1.190000057220459
1743758142.895,-0.7699999809265137,1.9600000381469727,-1.3300000429153442
1743758142.973,-0.49000000953674316,2.7300000190734863,-1.9600000381469727
1743758142.973,-0.8400000333786011,4.059999942779541,-2.380000114440918
1743758142.973,-0.9100000262260437,4.900000095367432,-3.0799999237060547
1743758142.973,-0.699999988079071,5.039999961853027,-3.9200000762939453
1743758143.052,-0.5600000023841858,5.670000076293945,-4.059999942779541
1743758143.052,-1.9600000381469727,5.110000133514404,-3.7100000381469727
1743758143.052,-2.6600000858306885,2.450000047683716,-3.009999990463257
1743758143.052,-1.8899999856948853,-0.07000000029802322,-1.9600000381469727
1743758143.131,-2.450000047683716,-1.6100000143051147,-0.7699999809265137
1743758143.131,-4.269999980926514,-0.9100000262260437,0.21000000834465027
1743758143.131,-4.480000019073486,0.699999988079071,1.0499999523162842
1743758143.131,-2.7300000190734863,2.309999942779541,0.699999988079071
1743758143.21,-1.9600000381469727,3.569999933242798,-0.42000001668930054
1743758143.21,-2.1700000762939453,3.7799999713897705,-1.4700000286102295
1743758143.21,-2.380000114440918,2.5899999141693115,-1.1200000047683716
1743758143.21,-1.75,0.49000000953674316,-0.5600000023841858
1743758143.289,-1.9600000381469727,-0.42000001668930054,-0.9800000190734863
1743758143.289,-2.5199999809265137,0,-1.2599999904632568
1743758143.289,-2.7300000190734863,1.9600000381469727,-0.9800000190734863
1743758143.289,-2.0299999713897705,2.870000123977661,-1.399999976158142
1743758143.367,-0.699999988079071,2.7300000190734863,-2.1700000762939453
1743758143.367,-0.07000000029802322,3.009999990463257,-2.0999999046325684
1743758143.367,-0.8400000333786011,2.799999952316284,-1.8899999856948853
1743758143.367,-1.1200000047683716,2.940000057220459,-1.5399999618530273
1743758143.446,-0.3499999940395355,3.2899999618530273,-1.190000057220459
1743758143.446,-0.3499999940395355,5.460000038146973,-1.4700000286102295
1743758143.446,-1.6800000667572021,6.159999847412109,-2.0299999713897705
1743758143.446,-1.6100000143051147,4.96999979019165,-1.8899999856948853
1743758143.525,-1.0499999523162842,2.309999942779541,-1.5399999618530273
1743758143.525,-2.240000009536743,1.3300000429153442,-1.2599999904632568
1743758143.525,-3.2899999618530273,1.2599999904632568,-0.8400000333786011
1743758143.525,-3.990000009536743,1.6100000143051147,-0.07000000029802322
1743758143.603,-3.990000009536743,0.5600000023841858,0.21000000834465027
1743758143.603,-3.7100000381469727,0.7699999809265137,-0.07000000029802322
1743758143.603,-3.569999933242798,1.8899999856948853,-0.9100000262260437
1743758143.603,-3.430000066757202,3.9200000762939453,-0.9800000190734863
1743758143.682,-3.8499999046325684,4.340000152587891,-0.2800000011920929
1743758143.682,-3.430000066757202,3.3600001335144043,0.07000000029802322
1743758143.682,-3.640000104904175,3.569999933242798,0.14000000059604645
1743758143.682,-3.1500000953674316,2.6600000858306885,0.14000000059604645
1743758143.761,-3.2200000286102295,2.5199999809265137,-0.3499999940395355
1743758143.761,-1.9600000381469727,1.5399999618530273,-0.8400000333786011
1743758143.761,-1.6100000143051147,2.940000057220459,-1.5399999618530273
1743758143.761,-2.0299999713897705,1.9600000381469727,-1.8200000524520874
1743758143.839,-2.5199999809265137,2.0299999713897705,-2.0299999713897705
1743758143.839,-2.0999999046325684,0.8400000333786011,-1.9600000381469727
1743758143.839,-2.240000009536743,1.9600000381469727,-2.0299999713897705
1743758143.839,-2.450000047683716,3.009999990463257,-1.8899999856948853
1743758143.918,-2.450000047683716,3.8499999046325684,-1.6100000143051147
1743758143.918,-1.75,3.1500000953674316,-1.75
1743758143.918,-2.450000047683716,3.0799999237060547,-2.0299999713897705
1743758143.918,-3.7100000381469727,3.430000066757202,-1.399999976158142
1743758143.997,-3.7799999713897705,3.9200000762939453,-0.5600000023841858
1743758143.997,-3.7799999713897705,3.2200000286102295,-0.3499999940395355
1743758143.997,-3.9200000762939453,2.6600000858306885,-0.9100000262260437
1743758143.997,-4.619999885559082,3.2899999618530273,-1.5399999618530273
1743758144.076,-5.25,2.5899999141693115,-0.9800000190734863
1743758144.076,-5.320000171661377,1.3300000429153442,-0.2800000011920929
1743758144.076,-4.340000152587891,0.9100000262260437,-0.699999988079071
1743758144.076,-4.130000114440918,2.7300000190734863,-1.5399999618530273
1743758144.155,-4.130000114440918,3.7100000381469727,-1.9600000381469727
1743758144.155,-3.8499999046325684,2.6600000858306885,-1.6100000143051147
1743758144.155,-3.2200000286102295,0.699999988079071,-0.9100000262260437
1743758144.155,-3.2200000286102295,0.7699999809265137,-0.9100000262260437
1743758144.233,-3.009999990463257,2.240000009536743,-1.190000057220459
1743758144.233,-2.380000114440918,3.430000066757202,-1.1200000047683716
1743758144.233,-1.399999976158142,3.1500000953674316,-1.190000057220459
1743758144.233,-0.9800000190734863,2.940000057220459,-1.190000057220459
1743758144.312,-0.07000000029802322,2.450000047683716,-1.6800000667572021
1743758144.312,0.3499999940395355,3.009999990463257,-2.5199999809265137
1743758144.312,0.5600000023841858,1.9600000381469727,-3.2200000286102295
1743758144.312,0.5600000023841858,2.0999999046325684,-3.0799999237060547
1743758144.391,0,1.75,-2.870000123977661
1743758144.391,-0.8400000333786011,1.399999976158142,-2.450000047683716
1743758144.391,-0.8400000333786011,0.5600000023841858,-2.450000047683716
1743758144.391,-0.07000000029802322,0.49000000953674316,-2.450000047683716
1743758144.469,-0.42000001668930054,0.3499999940395355,-2.6600000858306885
1743758144.469,-0.14000000059604645,1.399999976158142,-2.5199999809265137
1743758144.469,-0.21000000834465027,2.870000123977661,-1.9600000381469727
1743758144.469,-0.42000001668930054,3.5,-1.2599999904632568
1743758144.548,-0.8400000333786011,2.5899999141693115,-1.2599999904632568
1743758144.548,-0.14000000059604645,1.399999976158142,-1.2599999904632568
1743758144.548,0.3499999940395355,1.8200000524520874,-1.2599999904632568
1743758144.548,-0.2800000011920929,2.7300000190734863,-1.9600000381469727
1743758144.627,0,3.1500000953674316,-2.380000114440918
1743758144.627,0.42000001668930054,2.309999942779541,-2.450000047683716
1743758144.627,0.6299999952316284,2.0999999046325684,-2.7300000190734863
1743758144.627,0.7699999809265137,2.5899999141693115,-2.940000057220459
1743758144.706,0.6299999952316284,2.5899999141693115,-2.940000057220459
1743758144.706,0.14000000059604645,1.399999976158142,-2.5199999809265137
1743758144.706,-0.42000001668930054,0.699999988079071,-1.5399999618530273
1743758144.706,-1.4700000286102295,0.14000000059604645,-0.14000000059604645
1743758144.785,-3.569999933242798,0.9100000262260437,1.399999976158142
1743758144.785,-2.5199999809265137,1.6100000143051147,1.75
1743758144.785,-1.3300000429153442,4.059999942779541,0.3499999940395355
1743758144.785,0.14000000059604645,5.320000171661377,-1.8899999856948853
1743758144.863,0,6.929999828338623,-3.5
1743758144.863,-0.21000000834465027,5.53000020980835,-3.430000066757202
1743758144.863,-1.5399999618530273,5.179999828338623,-2.309999942779541
1743758144.863,-2.450000047683716,3.430000066757202,-1.399999976158142
1743758144.942,-3.430000066757202,2.5899999141693115,-1.2599999904632568
1743758144.942,-3.0799999237060547,0.5600000023841858,-1.0499999523162842
1743758144.942,-2.450000047683716,-0.3499999940395355,-0.7699999809265137
1743758144.942,-2.450000047683716,-0.21000000834465027,-0.6299999952316284
1743758145.021,-2.870000123977661,0.7699999809265137,0.14000000059604645
1743758145.021,-3.2899999618530273,1.8200000524520874,0.6299999952316284
1743758145.021,-3.0799999237060547,2.0999999046325684,0.8400000333786011
1743758145.021,-2.240000009536743,2.450000047683716,0.9100000262260437
1743758145.099,-1.1200000047683716,2.7300000190734863,-0.42000001668930054
1743758145.099,-1.8200000524520874,3.640000104904175,-1.2599999904632568
1743758145.099,-2.5899999141693115,3.3600001335144043,-1.2599999904632568
1743758145.099,-1.4700000286102295,1.6100000143051147,0.14000000059604645
1743758145.178,0.49000000953674316,-2.380000114440918,0.3499999940395355
1743758145.178,1.4700000286102295,-3.0799999237060547,-0.9800000190734863
1743758145.178,2.1700000762939453,0.14000000059604645,-2.0999999046325684
1743758145.178,1.6100000143051147,4.059999942779541,-3.430000066757202
1743758145.256,2.5199999809265137,6.230000019073486,-4.550000190734863
1743758145.256,3.9200000762939453,7.630000114440918,-5.599999904632568
1743758145.256,3.7100000381469727,7.769999980926514,-5.599999904632568
1743758145.256,2.240000009536743,7.420000076293945,-4.829999923706055
1743758145.335,-0.5600000023841858,5.599999904632568,-1.6800000667572021
1743758145.335,-3.0799999237060547,2.1700000762939453,1.6800000667572021
1743758145.335,-5.949999809265137,-1.4700000286102295,3.7100000381469727
1743758145.335,-7,-2.7300000190734863,4.480000019073486
1743758145.414,-6.019999980926514,-1.5399999618530273,3.8499999046325684
1743758145.414,-5.389999866485596,0.2800000011920929,3.009999990463257
1743758145.414,-4.760000228881836,1.0499999523162842,2.380000114440918
1743758145.414,-3.8499999046325684,2.1700000762939453,0.5600000023841858
1743758145.493,-2.1700000762939453,3.8499999046325684,-2.240000009536743
1743758145.493,-1.4700000286102295,6.230000019073486,-5.110000133514404
1743758145.493,-0.8400000333786011,6.159999847412109,-6.019999980926514
1743758145.493,-0.9800000190734863,3.9200000762939453,-5.599999904632568
1743758145.572,-2.0999999046325684,2.0299999713897705,-4.690000057220459
1743758145.572,-3.7100000381469727,-0.21000000834465027,-2.799999952316284
1743758145.572,-4.619999885559082,-2.450000047683716,-1.190000057220459
1743758145.572,-4.619999885559082,-3.640000104904175,0.14000000059604645
1743758145.651,-4.059999942779541,-3.1500000953674316,1.6100000143051147
1743758145.651,-3.7799999713897705,-0.14000000059604645,2.0999999046325684
1743758145.651,-3.8499999046325684,3.2200000286102295,1.6800000667572021
1743758145.651,-2.380000114440918,5.110000133514404,1.0499999523162842
1743758145.729,-1.1200000047683716,6.230000019073486,-0.07000000029802322
1743758145.729,-0.07000000029802322,6.019999980926514,-1.190000057220459
1743758145.729,1.2599999904632568,5.53000020980835,-2.7300000190734863
1743758145.729,2.5899999141693115,5.320000171661377,-5.110000133514404
1743758145.808,2.7300000190734863,4.199999809265137,-6.300000190734863
1743758145.808,1.6800000667572021,2.799999952316284,-6.090000152587891
1743758145.808,0.8400000333786011,1.2599999904632568,-5.320000171661377
1743758145.808,-0.7699999809265137,1.2599999904632568,-4.269999980926514
1743758145.887,-4.409999847412109,0.9800000190734863,-1.9600000381469727
1743758145.887,-4.059999942779541,-1.8200000524520874,0.8400000333786011
1743758145.887,-0.7699999809265137,-5.740000247955322,1.8899999856948853
1743758145.887,1.8200000524520874,-3.9200000762939453,1.8899999856948853
1743758145.965,2.5899999141693115,4.550000190734863,0.699999988079071
1743758145.965,0.6299999952316284,10.149999618530273,-1.3300000429153442
1743758145.965,0.699999988079071,12.180000305175781,-3.2200000286102295
1743758145.965,3.5,10.569999694824219,-4.199999809265137
1743758146.044,3.7799999713897705,6.090000152587891,-3.7799999713897705
1743758146.044,1.190000057220459,0.699999988079071,-2.450000047683716
1743758146.044,-1.4700000286102295,-4.340000152587891,0.6299999952316284
1743758146.044,-2.309999942779541,-9.520000457763672,3.7100000381469727
1743758146.123,-3.0799999237060547,-11.480000495910645,5.110000133514404
1743758146.123,-3.1500000953674316,-11.550000190734863,5.460000038146973
1743758146.123,-2.5899999141693115,-8.399999618530273,3.640000104904175
1743758146.123,-1.6800000667572021,-3.430000066757202,0
1743758146.202,-2.240000009536743,1.9600000381469727,-3.2200000286102295
1743758146.202,-5.599999904632568,6.369999885559082,-5.039999961853027
1743758146.202,-5.320000171661377,9.730000495910645,-6.579999923706055
1743758146.202,-1.5399999618530273,8.75,-8.819999694824219
1743758146.281,2.309999942779541,7.699999809265137,-11.970000267028809
1743758146.281,1.8899999856948853,11.550000190734863,-13.859999656677246
1743758146.281,-0.9800000190734863,14.489999771118164,-14.140000343322754
1743758146.281,-4.829999923706055,14.699999809265137,-12.460000038146973
1743758146.359,-4.829999923706055,11.199999809265137,-8.539999961853027
1743758146.359,-4.96999979019165,7.909999847412109,-3.0799999237060547
1743758146.359,-8.1899995803833,2.380000114440918,2.450000047683716
1743758146.359,-11.480000495910645,-4.550000190734863,7.559999942779541
1743758146.438,-10.289999961853027,-8.680000305175781,11.970000267028809
1743758146.438,-9.449999809265137,-9.3100004196167,15.470000267028809
1743758146.438,-7.769999980926514,-8.119999885559082,17.290000915527344
1743758146.438,-4.550000190734863,-4.619999885559082,15.75
1743758146.517,-1.1200000047683716,0.699999988079071,10.289999961853027
1743758146.517,1.3300000429153442,4.409999847412109,2.0999999046325684
1743758146.517,0,5.599999904632568,-7.349999904632568
1743758146.517,1.6100000143051147,3.7100000381469727,-15.119999885559082
1743758146.595,4.900000095367432,0.9100000262260437,-20.579999923706055
1743758146.595,5.949999809265137,-1.5399999618530273,-22.399999618530273
1743758146.595,1.2599999904632568,-1.399999976158142,-22.049999237060547
1743758146.595,-4.900000095367432,-0.49000000953674316,-20.3700008392334
1743758146.674,-8.119999885559082,-1.190000057220459,-15.539999961853027
1743758146.674,-7.980000019073486,-3.7799999713897705,-8.470000267028809
1743758146.674,-5.740000247955322,-6.369999885559082,0.14000000059604645
1743758146.674,-5.599999904632568,-4.409999847412109,7.980000019073486
1743758146.752,-7.349999904632568,1.6800000667572021,12.949999809265137
1743758146.752,-7.210000038146973,10.220000267028809,14.5600004196167
1743758146.752,-7.630000114440918,17.290000915527344,13.510000228881836
1743758146.752,-8.399999618530273,18.829999923706055,11.34000015258789
1743758146.831,-9.520000457763672,16.59000015258789,6.650000095367432
1743758146.831,-7.769999980926514,12.25,0.9800000190734863
1743758146.831,-4.619999885559082,7.070000171661377,-5.320000171661377
1743758146.831,-0.9800000190734863,1.75,-9.029999732971191
1743758146.91,1.5399999618530273,-2.450000047683716,-9.730000495910645
1743758146.91,1.2599999904632568,-3.640000104904175,-8.539999961853027
1743758146.91,-5.389999866485596,-2.870000123977661,-7.699999809265137
1743758146.91,-9.59000015258789,0.8400000333786011,-8.329999923706055
1743758146.989,-10.640000343322754,4.480000019073486,-9.800000190734863
1743758146.989,-9.3100004196167,6.090000152587891,-9.520000457763672
1743758146.989,-7.139999866485596,7.420000076293945,-5.389999866485596
1743758146.989,-6.230000019073486,7.840000152587891,1.8200000524520874
1743758147.068,-8.119999885559082,9.449999809265137,8.470000267028809
1743758147.068,-10.710000038146973,10.989999771118164,12.460000038146973
1743758147.068,-12.25,10.920000076293945,14.140000343322754
1743758147.068,-10.5,9.029999732971191,13.510000228881836
1743758147.147,-7.630000114440918,5.949999809265137,10.149999618530273
1743758147.147,-4.130000114440918,2.799999952316284,4.690000057220459
1743758147.147,-1.3300000429153442,2.0299999713897705,-2.0299999713897705
1743758147.147,1.4700000286102295,4.199999809265137,-7
1743758147.225,3.430000066757202,6.720000267028809,-8.399999618530273
1743758147.225,4.269999980926514,6.650000095367432,-7.559999942779541
1743758147.225,5.599999904632568,6.230000019073486,-7.139999866485596
1743758147.225,3.430000066757202,3.990000009536743,-7.559999942779541
1743758147.304,1.2599999904632568,0.42000001668930054,-7.980000019073486
1743758147.304,0.699999988079071,-1.8899999856948853,-5.880000114440918
1743758147.304,0.699999988079071,-2.940000057220459,-1.399999976158142
1743758147.304,1.8899999856948853,-1.5399999618530273,3.1500000953674316
1743758147.382,2.940000057220459,1.6100000143051147,6.230000019073486
1743758147.382,2.309999942779541,4.550000190734863,6.300000190734863
1743758147.382,1.8200000524520874,5.389999866485596,4.199999809265137
1743758147.382,1.9600000381469727,2.1700000762939453,1.190000057220459
1743758147.461,2.799999952316284,-2.5899999141693115,-0.5600000023841858
1743758147.461,3.430000066757202,-6.230000019073486,-2.1700000762939453
1743758147.461,0.14000000059604645,-7.420000076293945,-4.130000114440918
1743758147.461,-3.2200000286102295,-7.840000152587891,-5.670000076293945
1743758147.54,-5.809999942779541,-6.300000190734863,-5.809999942779541
1743758147.54,-5.740000247955322,-3.5,-4.550000190734863
1743758147.54,-4.199999809265137,-1.4700000286102295,-3.0799999237060547
1743758147.54,-1.4700000286102295,1.3300000429153442,-0.9100000262260437
1743758147.619,-0.14000000059604645,4.269999980926514,0.699999988079071
1743758147.619,-1.3300000429153442,7.630000114440918,1.8200000524520874
1743758147.619,-2.450000047683716,10.779999732971191,3.009999990463257
1743758147.619,-2.6600000858306885,11.34000015258789,4.059999942779541
1743758147.698,-2.5199999809265137,9.449999809265137,4.269999980926514
1743758147.698,-2.7300000190734863,7.840000152587891,3.3600001335144043
1743758147.698,-3.2200000286102295,5.460000038146973,1.399999976158142
1743758147.698,-2.799999952316284,3.2200000286102295,-1.4700000286102295
1743758147.777,-1.8899999856948853,1.190000057220459,-3.8499999046325684
1743758147.777,-1.8200000524520874,0.14000000059604645,-5.179999828338623
1743758147.777,-3.0799999237060547,1.1200000047683716,-6.019999980926514
1743758147.777,-4.130000114440918,2.870000123977661,-6.579999923706055
1743758147.855,-5.179999828338623,4.550000190734863,-5.599999904632568
1743758147.855,-6.019999980926514,4.199999809265137,-2.940000057220459
1743758147.855,-6.300000190734863,2.6600000858306885,0.2800000011920929
1743758147.855,-6.860000133514404,1.6100000143051147,3.009999990463257
1743758147.934,-7.909999847412109,0.9800000190734863,4.480000019073486
1743758147.934,-8.819999694824219,1.75,5.110000133514404
1743758147.934,-8.890000343322754,1.3300000429153442,5.599999904632568
1743758147.934,-8.119999885559082,0.5600000023841858,4.550000190734863
1743758148.012,-7.139999866485596,-1.190000057220459,2.240000009536743
1743758148.012,-6.019999980926514,-0.9100000262260437,-0.49000000953674316
1743758148.012,-4.619999885559082,1.6100000143051147,-3.009999990463257
1743758148.012,-3.640000104904175,4.550000190734863,-5.110000133514404
1743758148.091,-2.870000123977661,5.809999942779541,-6.369999885559082
1743758148.091,-1.8899999856948853,6.230000019073486,-6.860000133514404
1743758148.091,-2.309999942779541,6.720000267028809,-6.159999847412109
1743758148.091,-3.5,6.159999847412109,-4.130000114440918
1743758148.17,-3.7100000381469727,4.550000190734863,-1.4700000286102295
1743758148.17,-3.7100000381469727,2.870000123977661,0.7699999809265137
1743758148.17,-4.900000095367432,1.75,2.799999952316284
1743758148.17,-6.230000019073486,1.3300000429153442,4.199999809265137
1743758148.249,-5.949999809265137,0.7699999809265137,4.199999809265137
1743758148.249,-3.7799999713897705,0.49000000953674316,3.2200000286102295
1743758148.249,-2.870000123977661,1.399999976158142,1.1200000047683716
1743758148.249,-2.240000009536743,2.799999952316284,-1.5399999618530273
1743758148.328,-1.190000057220459,4.550000190734863,-3.8499999046325684
1743758148.328,-1.0499999523162842,5.670000076293945,-4.96999979019165
1743758148.328,-1.8899999856948853,6.159999847412109,-4.760000228881836
1743758148.328,-2.380000114440918,5.949999809265137,-3.990000009536743
1743758148.407,-3.2200000286102295,4.760000228881836,-3.2899999618530273
1743758148.407,-4.900000095367432,3.5,-0.8400000333786011
1743758148.407,-5.320000171661377,2.0999999046325684,2.450000047683716
1743758148.407,-4.96999979019165,1.3300000429153442,4.409999847412109
1743758148.485,-3.990000009536743,2.380000114440918,4.690000057220459
1743758148.485,-2.7300000190734863,4.900000095367432,4.130000114440918
1743758148.485,-0.14000000059604645,7.630000114440918,2.450000047683716
1743758148.485,2.309999942779541,9.800000190734863,-0.2800000011920929
1743758148.564,3.2200000286102295,9.65999984741211,-3.0799999237060547
1743758148.564,2.0999999046325684,6.789999961853027,-5.320000171661377
1743758148.564,2.450000047683716,2.450000047683716,-6.300000190734863
1743758148.564,2.0299999713897705,-2.0999999046325684,-6.230000019073486
1743758148.642,0.07000000029802322,-6.369999885559082,-5.320000171661377
1743758148.642,-1.6800000667572021,-7.139999866485596,-4.409999847412109
1743758148.642,-2.380000114440918,-6.789999961853027,-3.7799999713897705
1743758148.642,-2.1700000762939453,-6.440000057220459,-3.8499999046325684
1743758148.721,-1.4700000286102295,-4.130000114440918,-3.1500000953674316
1743758148.721,-0.07000000029802322,-2.1700000762939453,-1.6800000667572021
1743758148.721,0.9100000262260437,1.5399999618530273,-1.1200000047683716
1743758148.721,0.7699999809265137,4.269999980926514,-1.6800000667572021
1743758148.8,0,6.300000190734863,-1.8200000524520874
1743758148.8,-0.699999988079071,5.53000020980835,-1.3300000429153442
1743758148.8,-0.9100000262260437,3.2899999618530273,-1.5399999618530273
1743758148.8,-0.42000001668930054,0,-1.75
1743758148.878,0,-2.1700000762939453,-1.8200000524520874
1743758148.878,-0.14000000059604645,-2.5899999141693115,-1.9600000381469727
1743758148.878,-0.14000000059604645,-1.5399999618530273,-2.240000009536743
1743758148.878,0.7699999809265137,1.0499999523162842,-3.0799999237060547
1743758148.957,0.699999988079071,4.199999809265137,-3.8499999046325684
1743758148.957,1.5399999618530273,6.929999828338623,-4.130000114440918
1743758148.957,2.1700000762939453,8.260000228881836,-3.7100000381469727
1743758148.957,2.380000114440918,7.980000019073486,-2.940000057220459
1743758149.036,1.9600000381469727,7.349999904632568,-1.6800000667572021
1743758149.036,2.380000114440918,5.880000114440918,-0.5600000023841858
1743758149.036,2.380000114440918,3.569999933242798,-0.49000000953674316
1743758149.036,2.0299999713897705,1.2599999904632568,-1.399999976158142
1743758149.115,1.8899999856948853,-0.2800000011920929,-2.6600000858306885
1743758149.115,1.4700000286102295,-0.07000000029802322,-2.940000057220459
1743758149.115,0.42000001668930054,0,-2.450000047683716
1743758149.115,0.14000000059604645,-1.1200000047683716,-2.450000047683716
1743758149.194,0.9100000262260437,-1.0499999523162842,-2.450000047683716
1743758149.194,2.450000047683716,-0.42000001668930054,-3.009999990463257
1743758149.194,3.1500000953674316,0.5600000023841858,-4.340000152587891
1743758149.194,3.430000066757202,2.1700000762939453,-4.690000057220459
1743758149.272,1.5399999618530273,3.0799999237060547,-3.2899999618530273
1743758149.272,1.8899999856948853,3.430000066757202,-1.5399999618530273
1743758149.272,0.7699999809265137,2.870000123977661,-1.6100000143051147
1743758149.272,1.75,0.9800000190734863,-2.0999999046325684
1743758149.351,1.9600000381469727,0.42000001668930054,-2.5899999141693115
1743758149.351,0.6299999952316284,-1.8899999856948853,-2.0299999713897705
1743758149.351,0.42000001668930054,-2.1700000762939453,-1.2599999904632568
1743758149.351,1.3300000429153442,-0.07000000029802322,-1.3300000429153442
1743758149.43,1.4700000286102295,2.870000123977661,-2.309999942779541
1743758149.43,2.240000009536743,5.039999961853027,-4.059999942779541
1743758149.43,2.7300000190734863,6.019999980926514,-5.110000133514404
1743758149.43,2.5899999141693115,6.369999885559082,-4.619999885559082
1743758149.508,1.2599999904632568,7.559999942779541,-3.990000009536743
1743758149.508,-0.49000000953674316,6.720000267028809,-3.2899999618530273
1743758149.508,-1.75,4.340000152587891,-2.799999952316284
1743758149.508,-1.9600000381469727,1.6100000143051147,-2.870000123977661
1743758149.587,-3.5,-0.7699999809265137,-3.009999990463257
1743758149.587,-5.670000076293945,-3.2899999618530273,-2.1700000762939453
1743758149.587,-7.139999866485596,-3.2899999618530273,-0.3499999940395355
1743758149.587,-7.210000038146973,-2.450000047683716,1.399999976158142
1743758149.666,-6.019999980926514,-1.190000057220459,2.0999999046325684
1743758149.666,-4.619999885559082,-0.3499999940395355,1.2599999904632568
1743758149.666,-2.870000123977661,2.0299999713897705,-0.5600000023841858
1743758149.666,-2.940000057220459,2.799999952316284,-2.309999942779541
1743758149.745,-3.009999990463257,4.409999847412109,-3.5
1743758149.745,-3.640000104904175,6.720000267028809,-4.269999980926514
1743758149.745,-5.670000076293945,8.050000190734863,-4.199999809265137
1743758149.745,-7.349999904632568,9.239999771118164,-3.5
1743758149.824,-6.579999923706055,9.449999809265137,-3.430000066757202
1743758149.824,-6.510000228881836,10.289999961853027,-3.1500000953674316
1743758149.824,-6.230000019073486,9.65999984741211,-2.450000047683716
1743758149.824,-6.929999828338623,8.960000038146973,-1.3300000429153442
1743758149.902,-6.579999923706055,5.949999809265137,0.2800000011920929
1743758149.902,-6.510000228881836,5.53000020980835,1.1200000047683716
1743758149.902,-7.139999866485596,5.53000020980835,1.1200000047683716
1743758149.902,-7.980000019073486,5.389999866485596,0.3499999940395355
1743758149.981,-7.909999847412109,2.6600000858306885,-0.49000000953674316
1743758149.981,-6.090000152587891,0.21000000834465027,-1.6800000667572021
1743758149.981,-4.96999979019165,-2.870000123977661,-2.380000114440918
1743758149.981,-5.670000076293945,-3.7100000381469727,-3.1500000953674316
1743758150.06,-6.720000267028809,-2.5899999141693115,-3.2899999618530273
1743758150.06,-7.909999847412109,-0.49000000953674316,-3.3600001335144043
1743758150.06,-7.559999942779541,2.450000047683716,-2.5899999141693115
1743758150.06,-6.510000228881836,4.96999979019165,-1.8200000524520874
1743758150.138,-5.039999961853027,6.650000095367432,-1.6800000667572021
1743758150.138,-3.990000009536743,7.210000038146973,-1.4700000286102295
1743758150.138,-2.799999952316284,7.490000247955322,-1.0499999523162842
1743758150.138,-2.450000047683716,7.559999942779541,-0.49000000953674316
1743758150.217,-3.2899999618530273,6.860000133514404,-0.21000000834465027
1743758150.217,-3.2899999618530273,6.440000057220459,-0.14000000059604645
1743758150.217,-2.380000114440918,6.369999885559082,-0.8400000333786011
1743758150.217,-1.5399999618530273,5.179999828338623,-1.4700000286102295
1743758150.296,-1.2599999904632568,3.1500000953674316,-2.240000009536743
1743758150.296,-0.9800000190734863,1.2599999904632568,-2.940000057220459
1743758150.296,0.2800000011920929,1.1200000047683716,-3.1500000953674316
1743758150.296,0.3499999940395355,2.940000057220459,-3.5
1743758150.375,0.9800000190734863,4.480000019073486,-3.9200000762939453
1743758150.375,1.399999976158142,6.090000152587891,-4.199999809265137
1743758150.375,1.399999976158142,6.789999961853027,-3.9200000762939453
1743758150.375,0.7699999809265137,7,-3.569999933242798
1743758150.454,0,5.740000247955322,-2.870000123977661
1743758150.454,-0.9100000262260437,3.3600001335144043,-1.4700000286102295
1743758150.454,-1.6100000143051147,0.699999988079071,0.3499999940395355
1743758150.454,-2.309999942779541,-1.6100000143051147,1.6100000143051147
1743758150.533,-2.799999952316284,-3.2899999618530273,2.450000047683716
1743758150.533,-2.0999999046325684,-4.130000114440918,2.799999952316284
1743758150.533,-1.3300000429153442,-4.130000114440918,2.5899999141693115
1743758150.533,-0.6299999952316284,-2.240000009536743,2.309999942779541
1743758150.611,0.3499999940395355,0.21000000834465027,1.1200000047683716
1743758150.611,1.4700000286102295,3.430000066757202,-0.49000000953674316
1743758150.611,2.6600000858306885,4.760000228881836,-1.75
1743758150.611,4.480000019073486,5.460000038146973,-3.569999933242798
1743758150.69,5.740000247955322,6.789999961853027,-5.740000247955322
1743758150.69,4.690000057220459,7.980000019073486,-6.929999828338623
1743758150.69,2.940000057220459,8.960000038146973,-6.929999828338623
1743758150.69,0.9100000262260437,8.260000228881836,-5.670000076293945
1743758150.768,-0.5600000023841858,4.690000057220459,-3.1500000953674316
1743758150.768,-1.9600000381469727,1.0499999523162842,-1.3300000429153442
1743758150.768,-2.940000057220459,-1.4700000286102295,-0.2800000011920929
1743758150.768,-3.430000066757202,-1.5399999618530273,1.0499999523162842
1743758150.847,-4.130000114440918,-0.699999988079071,2.5199999809265137
1743758150.847,-4.409999847412109,0,3.5
1743758150.847,-2.450000047683716,0.14000000059604645,3.3600001335144043
1743758150.847,-0.49000000953674316,0.14000000059604645,1.3300000429153442
1743758150.926,0.5600000023841858,0.21000000834465027,-1.4700000286102295
1743758150.926,0.9800000190734863,0.9100000262260437,-3.2899999618530273
1743758150.926,0.9800000190734863,0.3499999940395355,-3.9200000762939453
1743758150.926,0.07000000029802322,-0.3499999940395355,-3.990000009536743
1743758151.004,-0.699999988079071,0.07000000029802322,-4.269999980926514
1743758151.004,-1.0499999523162842,0.9100000262260437,-4.340000152587891
1743758151.004,-1.4700000286102295,0.8400000333786011,-4.199999809265137
1743758151.004,-1.5399999618530273,0.14000000059604645,-3.1500000953674316
1743758151.083,-1.5399999618530273,0,-1.399999976158142
1743758151.083,-1.399999976158142,2.0299999713897705,-0.6299999952316284
1743758151.083,-2.870000123977661,4.829999923706055,-0.49000000953674316
1743758151.083,-2.5899999141693115,6.159999847412109,-0.42000001668930054
1743758151.162,-3.0799999237060547,7.28000020980835,-1.0499999523162842
1743758151.162,-2.450000047683716,6.720000267028809,-2.0299999713897705
1743758151.162,-2.0299999713897705,6.579999923706055,-3.0799999237060547
1743758151.162,-1.3300000429153442,4.829999923706055,-3.8499999046325684
1743758151.241,-1.8200000524520874,2.799999952316284,-4.269999980926514
1743758151.241,-1.8200000524520874,1.0499999523162842,-2.940000057220459
1743758151.241,-2.0299999713897705,-0.14000000059604645,-2.0299999713897705
1743758151.241,-3.5,-0.699999988079071,-1.0499999523162842
1743758151.32,-2.940000057220459,-1.190000057220459,0.21000000834465027
1743758151.32,-2.240000009536743,-0.42000001668930054,1.1200000047683716
1743758151.32,-1.8899999856948853,-0.9100000262260437,1.1200000047683716
1743758151.32,-1.0499999523162842,1.190000057220459,0.6299999952316284
1743758151.398,-0.2800000011920929,3.569999933242798,0.21000000834465027
1743758151.398,-0.8400000333786011,6.159999847412109,-0.14000000059604645
1743758151.398,-0.42000001668930054,6.369999885559082,-0.6299999952316284
1743758151.398,0.6299999952316284,5.809999942779541,-1.190000057220459
1743758151.477,1.0499999523162842,4.340000152587891,-1.9600000381469727
1743758151.477,0.9800000190734863,3.0799999237060547,-2.309999942779541
1743758151.477,0.49000000953674316,2.5199999809265137,-1.8200000524520874
1743758151.477,0.9800000190734863,2.309999942779541,-1.3300000429153442
1743758151.556,0.42000001668930054,3.430000066757202,-1.399999976158142
1743758151.556,0.2800000011920929,3.640000104904175,-1.8899999856948853
1743758151.556,0,5.039999961853027,-2.1700000762939453
1743758151.556,0.42000001668930054,5.039999961853027,-2.0999999046325684
1743758151.634,0.7699999809265137,6.090000152587891,-2.450000047683716
1743758151.634,-0.2800000011920929,5.389999866485596,-2.309999942779541
1743758151.634,-1.0499999523162842,4.900000095367432,-1.8899999856948853
1743758151.634,-2.0999999046325684,3.7799999713897705,-1.0499999523162842
1743758151.713,-2.380000114440918,2.5199999809265137,-0.699999988079071
1743758151.713,-3.5,1.6100000143051147,-0.14000000059604645
1743758151.713,-4.199999809265137,0,0.42000001668930054
1743758151.713,-4.409999847412109,-0.6299999952316284,1.0499999523162842
1743758151.792,-4.690000057220459,-2.0299999713897705,1.9600000381469727
1743758151.792,-4.199999809265137,-0.9100000262260437,1.6800000667572021
1743758151.792,-4.059999942779541,1.8200000524520874,0.7699999809265137
1743758151.792,-2.7300000190734863,4.550000190734863,-0.3499999940395355
1743758151.871,-2.0299999713897705,6.510000228881836,-1.0499999523162842
1743758151.871,-1.5399999618530273,6.019999980926514,-1.9600000381469727
1743758151.871,-0.9800000190734863,5.320000171661377,-2.799999952316284
1743758151.871,-1.2599999904632568,4.409999847412109,-3.0799999237060547
1743758151.95,-2.5899999141693115,3.8499999046325684,-2.870000123977661
1743758151.95,-3.2200000286102295,3.7100000381469727,-2.309999942779541
1743758151.95,-3.1500000953674316,4.199999809265137,-2.1700000762939453
1743758151.95,-3.1500000953674316,5.320000171661377,-2.5199999809265137
1743758152.028,-2.7300000190734863,4.96999979019165,-3.009999990463257
1743758152.028,-2.799999952316284,4.340000152587891,-2.5899999141693115
1743758152.028,-2.380000114440918,2.380000114440918,-1.399999976158142
1743758152.028,-2.5899999141693115,1.75,-0.42000001668930054
1743758152.107,-2.450000047683716,1.190000057220459,-0.14000000059604645
1743758152.107,-2.5899999141693115,1.190000057220459,-0.21000000834465027
1743758152.107,-2.309999942779541,0,-0.3499999940395355
1743758152.107,-1.8200000524520874,-0.42000001668930054,-0.42000001668930054
1743758152.186,-1.2599999904632568,-0.6299999952316284,-0.9800000190734863
1743758152.186,-1.8200000524520874,-0.14000000059604645,-1.6800000667572021
1743758152.186,-1.6800000667572021,1.190000057220459,-2.1700000762939453
1743758152.186,-1.2599999904632568,1.6100000143051147,-2.0999999046325684
1743758152.264,-0.2800000011920929,1.3300000429153442,-1.9600000381469727
1743758152.264,-0.6299999952316284,0.14000000059604645,-2.0299999713897705
1743758152.264,-0.49000000953674316,0.9100000262260437,-2.0299999713897705
1743758152.264,-0.14000000059604645,2.7300000190734863,-1.9600000381469727
1743758152.343,-0.14000000059604645,4.96999979019165,-2.1700000762939453
1743758152.343,0.3499999940395355,5.740000247955322,-2.940000057220459
1743758152.343,0.699999988079071,6.440000057220459,-3.2899999618530273
1743758152.343,0.5600000023841858,6.159999847412109,-3.2200000286102295
1743758152.422,-0.2800000011920929,4.480000019073486,-3.009999990463257
1743758152.422,-0.21000000834465027,2.309999942779541,-2.0999999046325684
1743758152.422,-0.3499999940395355,0.5600000023841858,-1.3300000429153442
1743758152.422,-0.7699999809265137,-0.21000000834465027,-1.6100000143051147
1743758152.501,-0.7699999809265137,0.14000000059604645,-2.0999999046325684
1743758152.501,-0.699999988079071,0.49000000953674316,-2.450000047683716
1743758152.501,-1.0499999523162842,1.4700000286102295,-2.5199999809265137
1743758152.501,-1.8200000524520874,1.8899999856948853,-2.1700000762939453
1743758152.58,-2.0999999046325684,1.8899999856948853,-1.8899999856948853
1743758152.58,-3.0799999237060547,-0.21000000834465027,-1.1200000047683716
1743758152.58,-4.059999942779541,-1.190000057220459,0
1743758152.58,-4.480000019073486,-0.2800000011920929,0.9100000262260437
1743758152.658,-4.199999809265137,0.21000000834465027,1.190000057220459
1743758152.658,-3.3600001335144043,1.2599999904632568,0.21000000834465027
1743758152.658,-2.7300000190734863,1.8200000524520874,-1.1200000047683716
1743758152.658,-3.0799999237060547,2.940000057220459,-2.240000009536743
1743758152.737,-3.1500000953674316,3.2200000286102295,-2.309999942779541
1743758152.737,-2.6600000858306885,3.009999990463257,-1.8899999856948853
1743758152.737,-2.240000009536743,2.240000009536743,-2.240000009536743
1743758152.737,-2.0299999713897705,2.240000009536743,-2.870000123977661
1743758152.816,-0.8400000333786011,2.380000114440918,-3.3600001335144043
1743758152.816,0.07000000029802322,3.2200000286102295,-3.9200000762939453
1743758152.816,-0.2800000011920929,3.2200000286102295,-3.9200000762939453
1743758152.816,-0.8400000333786011,3.640000104904175,-3.1500000953674316
1743758152.894,-1.1200000047683716,3.640000104904175,-2.309999942779541
1743758152.894,-0.9100000262260437,3.5,-1.6100000143051147
1743758152.894,-0.7699999809265137,3.2200000286102295,-1.8200000524520874
1743758152.894,-1.1200000047683716,2.940000057220459,-1.5399999618530273
1743758152.973,-0.9800000190734863,1.5399999618530273,-0.9800000190734863
1743758152.973,-0.9800000190734863,1.4700000286102295,-0.8400000333786011
1743758152.973,-1.6100000143051147,0.49000000953674316,-0.21000000834465027
1743758152.973,-1.6100000143051147,1.5399999618530273,-0.5600000023841858
1743758153.052,-2.0999999046325684,-0.699999988079071,-0.49000000953674316
1743758153.052,-0.9800000190734863,-0.9100000262260437,-1.190000057220459
1743758153.052,-0.42000001668930054,-0.5600000023841858,-2.1700000762939453
1743758153.052,-0.6299999952316284,0.3499999940395355,-2.5899999141693115
1743758153.13,-0.7699999809265137,2.1700000762939453,-2.870000123977661
1743758153.13,-0.8400000333786011,2.940000057220459,-2.5199999809265137
1743758153.13,-0.6299999952316284,3.7799999713897705,-2.799999952316284
1743758153.13,-0.8400000333786011,4.059999942779541,-2.940000057220459
1743758153.209,-0.49000000953674316,3.990000009536743,-2.240000009536743
1743758153.209,-0.6299999952316284,3.2899999618530273,-1.399999976158142
1743758153.209,-0.9800000190734863,3.0799999237060547,-0.699999988079071
1743758153.209,-0.8400000333786011,2.799999952316284,-0.42000001668930054
1743758153.288,-0.8400000333786011,3.009999990463257,-0.699999988079071
1743758153.288,-0.8400000333786011,2.870000123977661,-1.190000057220459
1743758153.288,-0.14000000059604645,2.5899999141693115,-1.2599999904632568
1743758153.288,-0.07000000029802322,2.0299999713897705,-1.8899999856948853
1743758153.367,-0.8400000333786011,0.8400000333786011,-2.309999942779541
1743758153.367,-1.75,1.190000057220459,-2.380000114440918
1743758153.367,-2.0299999713897705,1.8200000524520874,-2.0299999713897705
1743758153.367,-2.1700000762939453,2.309999942779541,-2.1700000762939453
1743758153.446,-1.6800000667572021,3.7799999713897705,-2.309999942779541
1743758153.446,-2.0299999713897705,3.5,-2.1700000762939453
1743758153.446,-2.6600000858306885,2.940000057220459,-1.8899999856948853
1743758153.446,-3.2899999618530273,2.5899999141693115,-0.42000001668930054
1743758153.524,-3.640000104904175,2.5899999141693115,1.0499999523162842
1743758153.524,-4.199999809265137,2.450000047683716,1.75
1743758153.524,-3.009999990463257,2.380000114440918,1.1200000047683716
1743758153.524,-1.2599999904632568,2.380000114440918,-0.8400000333786011
1743758153.603,-0.3499999940395355,2.380000114440918,-2.7300000190734863
1743758153.603,-0.8400000333786011,3.640000104904175,-3.5
1743758153.603,-1.6100000143051147,4.619999885559082,-2.940000057220459
1743758153.603,-1.6100000143051147,5.809999942779541,-2.870000123977661
1743758153.682,-0.8400000333786011,5.670000076293945,-3.1500000953674316
1743758153.682,-0.6299999952316284,4.059999942779541,-3.3600001335144043
1743758153.682,-0.6299999952316284,2.309999942779541,-3.7100000381469727
1743758153.682,-0.7699999809265137,1.6100000143051147,-3.0799999237060547
1743758153.76,-1.3300000429153442,2.380000114440918,-1.9600000381469727
1743758153.76,-2.5199999809265137,3.2200000286102295,-0.9800000190734863
1743758153.76,-3.1500000953674316,3.430000066757202,-1.0499999523162842
1743758153.76,-2.799999952316284,1.6800000667572021,-0.9100000262260437
1743758153.839,-2.5199999809265137,0.699999988079071,-1.4700000286102295
1743758153.839,-2.380000114440918,1.4700000286102295,-1.75
1743758153.839,-2.309999942779541,2.7300000190734863,-1.75
1743758153.839,-3.1500000953674316,2.6600000858306885,-0.9800000190734863
1743758153.918,-3.1500000953674316,2.240000009536743,-0.5600000023841858
1743758153.918,-3.569999933242798,2.0999999046325684,-0.21000000834465027
1743758153.918,-3.569999933242798,1.3300000429153442,0
1743758153.918,-3.2899999618530273,2.0999999046325684,0.49000000953674316
1743758153.997,-2.940000057220459,1.8899999856948853,0.42000001668930054
1743758153.997,-2.7300000190734863,2.0299999713897705,-0.14000000059604645
1743758153.997,-1.9600000381469727,2.309999942779541,-1.0499999523162842
1743758153.997,-1.75,5.039999961853027,-2.240000009536743
1743758154.076,-1.75,7.490000247955322,-2.5199999809265137
1743758154.076,-2.5199999809265137,7.559999942779541,-2.5899999141693115
1743758154.076,-1.6100000143051147,5.389999866485596,-1.9600000381469727
1743758154.076,-2.450000047683716,2.380000114440918,-1.5399999618530273
1743758154.154,-2.5899999141693115,0.42000001668930054,-1.1200000047683716
1743758154.154,-1.8899999856948853,1.190000057220459,-0.6299999952316284
1743758154.154,-1.0499999523162842,2.870000123977661,-0.5600000023841858
1743758154.154,-1.3300000429153442,4.340000152587891,-1.190000057220459
1743758154.233,-1.3300000429153442,4.269999980926514,-1.190000057220459
1743758154.233,-1.2599999904632568,2.940000057220459,-0.5600000023841858
1743758154.233,-1.3300000429153442,1.75,-0.3499999940395355
1743758154.233,-1.8200000524520874,0.9100000262260437,-0.42000001668930054
1743758154.312,-1.3300000429153442,0.7699999809265137,-0.49000000953674316
1743758154.312,0.14000000059604645,1.190000057220459,-0.42000001668930054
1743758154.312,1.0499999523162842,1.1200000047683716,-1.8200000524520874
1743758154.312,0.9800000190734863,1.3300000429153442,-2.870000123977661
1743758154.39,0.5600000023841858,2.7300000190734863,-2.799999952316284
1743758154.39,0.7699999809265137,3.990000009536743,-1.8200000524520874
1743758154.39,0.3499999940395355,4.550000190734863,-1.0499999523162842
1743758154.39,0.5600000023841858,3.9200000762939453,-1.0499999523162842
1743758154.469,1.2599999904632568,2.940000057220459,-1.0499999523162842
1743758154.469,1.5399999618530273,1.75,-1.1200000047683716
1743758154.469,0.2800000011920929,1.4700000286102295,-0.5600000023841858
1743758154.469,0.07000000029802322,1.6800000667572021,-0.42000001668930054
1743758154.548,0,3.2200000286102295,-0.6299999952316284
1743758154.548,0.14000000059604645,4.130000114440918,-1.5399999618530273
1743758154.548,0.42000001668930054,5.740000247955322,-2.940000057220459
1743758154.548,0.9100000262260437,5.320000171661377,-3.569999933242798
1743758154.627,0.7699999809265137,5.460000038146973,-3.2899999618530273
1743758154.627,-0.3499999940395355,4.340000152587891,-2.1700000762939453
1743758154.627,-0.9800000190734863,3.640000104904175,-1.6100000143051147
1743758154.627,-2.1700000762939453,1.6100000143051147,-1.0499999523162842
1743758154.706,-2.380000114440918,1.2599999904632568,-0.9100000262260437
1743758154.706,-3.5,1.6100000143051147,-0.5600000023841858
1743758154.706,-3.990000009536743,2.1700000762939453,0
1743758154.706,-3.8499999046325684,1.8899999856948853,0
1743758154.784,-2.5899999141693115,1.1200000047683716,-0.42000001668930054
1743758154.784,-1.8200000524520874,1.190000057220459,-1.3300000429153442
1743758154.784,-2.1700000762939453,1.6800000667572021,-2.0299999713897705
1743758154.784,-2.7300000190734863,1.8899999856948853,-1.6800000667572021
1743758154.863,-2.7300000190734863,0.8400000333786011,-0.7699999809265137
1743758154.863,-3.2899999618530273,0.14000000059604645,-0.6299999952316284
1743758154.863,-2.940000057220459,-0.2800000011920929,-1.1200000047683716
1743758154.863,-1.8899999856948853,0.2800000011920929,-2.1700000762939453
1743758154.942,-0.8400000333786011,1.8200000524520874,-3.1500000953674316
1743758154.942,-0.2800000011920929,3.640000104904175,-3.7100000381469727
1743758154.942,-0.3499999940395355,4.480000019073486,-3.640000104904175
1743758154.942,-0.9100000262260437,4.619999885559082,-3.430000066757202
1743758155.02,-1.8200000524520874,4.059999942779541,-3.009999990463257
1743758155.02,-2.0999999046325684,3.1500000953674316,-2.240000009536743
1743758155.02,-2.309999942779541,2.6600000858306885,-1.190000057220459
1743758155.02,-2.240000009536743,1.8899999856948853,-0.7699999809265137
1743758155.099,-1.8200000524520874,0.9100000262260437,-0.9800000190734863
1743758155.099,-1.190000057220459,0.3499999940395355,-1.5399999618530273
1743758155.099,-1.2599999904632568,1.190000057220459,-1.8899999856948853
1743758155.099,-1.3300000429153442,2.7300000190734863,-2.309999942779541
1743758155.178,-1.2599999904632568,4.409999847412109,-2.450000047683716
1743758155.178,-1.190000057220459,4.480000019073486,-2.6600000858306885
1743758155.178,-1.0499999523162842,3.640000104904175,-3.009999990463257
1743758155.178,-1.2599999904632568,2.0999999046325684,-2.5899999141693115
1743758155.256,-1.2599999904632568,1.3300000429153442,-1.8899999856948853
1743758155.256,-1.8899999856948853,1.190000057220459,-0.9100000262260437
1743758155.256,-2.940000057220459,0.2800000011920929,-0.6299999952316284
1743758155.256,-3.430000066757202,1.2599999904632568,-0.49000000953674316
1743758155.335,-2.5899999141693115,1.2599999904632568,-0.14000000059604645
1743758155.335,-1.8200000524520874,2.940000057220459,-0.9100000262260437
1743758155.335,-0.8400000333786011,3.640000104904175,-2.0299999713897705
1743758155.335,-0.3499999940395355,4.96999979019165,-2.940000057220459
1743758155.414,-0.2800000011920929,5.039999961853027,-3.0799999237060547
1743758155.414,0.14000000059604645,4.690000057220459,-3.009999990463257
1743758155.414,-1.1200000047683716,4.199999809265137,-2.7300000190734863
1743758155.414,-1.6100000143051147,3.0799999237060547,-2.5899999141693115
1743758155.493,-2.240000009536743,3.1500000953674316,-2.0299999713897705
1743758155.493,-1.9600000381469727,1.75,-1.2599999904632568
1743758155.493,-2.0299999713897705,2.5899999141693115,-0.9100000262260437
1743758155.493,-1.6800000667572021,1.75,-0.9100000262260437
1743758155.572,-1.5399999618530273,2.940000057220459,-1.399999976158142
1743758155.572,-1.2599999904632568,3.7100000381469727,-1.4700000286102295
1743758155.572,-1.0499999523162842,4.900000095367432,-1.6800000667572021
1743758155.572,-1.2599999904632568,3.569999933242798,-1.399999976158142
1743758155.65,-1.4700000286102295,2.6600000858306885,-1.399999976158142
1743758155.65,-1.8899999856948853,1.75,-1.0499999523162842
1743758155.65,-1.4700000286102295,0.42000001668930054,-0.699999988079071
1743758155.65,-0.699999988079071,0,-0.8400000333786011
1743758155.729,0.7699999809265137,0.7699999809265137,-1.75
1743758155.729,0.9100000262260437,2.7300000190734863,-2.940000057220459
1743758155.729,0.699999988079071,3.640000104904175,-3.5
1743758155.729,0.2800000011920929,3.430000066757202,-2.6600000858306885
1743758155.808,0.42000001668930054,2.1700000762939453,-1.6800000667572021
1743758155.808,0.3499999940395355,2.309999942779541,-1.75
1743758155.808,-0.2800000011920929,1.5399999618530273,-1.75
1743758155.808,0.5600000023841858,1.399999976158142,-1.6800000667572021
1743758155.886,0.9800000190734863,1.0499999523162842,-2.0299999713897705
1743758155.886,0.42000001668930054,1.6800000667572021,-2.450000047683716
1743758155.886,-0.8400000333786011,2.5899999141693115,-2.450000047683716
1743758155.886,-0.6299999952316284,3.2899999618530273,-2.0999999046325684
1743758155.965,-0.5600000023841858,3.9200000762939453,-2.309999942779541
1743758155.965,-1.0499999523162842,3.569999933242798,-2.6600000858306885
1743758155.965,-1.399999976158142,2.6600000858306885,-2.1700000762939453
1743758155.965,-1.6100000143051147,0,-1.5399999618530273
1743758156.044,-2.5199999809265137,-0.21000000834465027,-1.399999976158142
1743758156.044,-2.5899999141693115,1.1200000047683716,-1.1200000047683716
1743758156.044,-3.430000066757202,2.940000057220459,-1.2599999904632568
1743758156.044,-3.2899999618530273,3.2200000286102295,-1.6800000667572021
1743758156.123,-2.5199999809265137,2.6600000858306885,-2.1700000762939453
1743758156.123,-2.0999999046325684,1.8899999856948853,-2.380000114440918
1743758156.123,-2.799999952316284,2.0299999713897705,-2.240000009536743
1743758156.123,-3.430000066757202,1.190000057220459,-1.2599999904632568
1743758156.202,-3.1500000953674316,0.3499999940395355,0.07000000029802322
1743758156.202,-3.0799999237060547,-0.21000000834465027,0.42000001668930054
1743758156.202,-3.009999990463257,0.42000001668930054,-0.2800000011920929
1743758156.202,-1.75,1.8200000524520874,-1.399999976158142
1743758156.28,-1.399999976158142,3.1500000953674316,-2.0999999046325684
1743758156.28,-1.9600000381469727,4.269999980926514,-2.1700000762939453
1743758156.28,-2.0999999046325684,4.900000095367432,-1.399999976158142
1743758156.28,-1.5399999618530273,4.340000152587891,-0.9100000262260437
1743758156.359,-0.49000000953674316,3.7799999713897705,-1.75
1743758156.359,0.3499999940395355,3.1500000953674316,-2.7300000190734863
1743758156.359,1.0499999523162842,3.009999990463257,-2.450000047683716
1743758156.359,0.42000001668930054,2.240000009536743,-1.3300000429153442
1743758156.438,-0.49000000953674316,1.9600000381469727,-0.6299999952316284
1743758156.438,-0.9800000190734863,0.9800000190734863,-0.49000000953674316
1743758156.438,-0.8400000333786011,0.5600000023841858,-0.6299999952316284
1743758156.438,0.14000000059604645,1.190000057220459,-0.9800000190734863
1743758156.516,0.6299999952316284,1.3300000429153442,-1.6100000143051147
1743758156.516,0.49000000953674316,0.9800000190734863,-2.0999999046325684
1743758156.516,-0.42000001668930054,-0.7699999809265137,-1.6100000143051147
1743758156.516,-1.6100000143051147,-1.2599999904632568,-0.49000000953674316
1743758156.595,-1.9600000381469727,-1.8899999856948853,-0.07000000029802322
1743758156.595,-1.9600000381469727,-0.49000000953674316,-0.699999988079071
1743758156.595,-2.0999999046325684,0.49000000953674316,-0.9100000262260437
1743758156.595,-1.5399999618530273,1.5399999618530273,-1.190000057220459
1743758156.673,-1.0499999523162842,2.309999942779541,-1.8200000524520874
1743758156.673,-1.1200000047683716,3.9200000762939453,-2.380000114440918
1743758156.673,-1.8899999856948853,5.25,-2.5899999141693115
1743758156.673,-2.5199999809265137,5.599999904632568,-2.380000114440918
1743758156.752,-1.9600000381469727,4.96999979019165,-2.6600000858306885
1743758156.752,-2.1700000762939453,4.340000152587891,-3.2200000286102295
1743758156.752,-3.5,2.940000057220459,-3.0799999237060547
1743758156.752,-3.9200000762939453,1.8899999856948853,-2.450000047683716
1743758156.831,-3.7799999713897705,1.6100000143051147,-2.0999999046325684
1743758156.831,-4.409999847412109,1.8200000524520874,-1.8899999856948853
1743758156.831,-5.179999828338623,2.0299999713897705,-1.3300000429153442
1743758156.831,-4.96999979019165,0.49000000953674316,-0.6299999952316284
1743758156.91,-4.059999942779541,-1.3300000429153442,-0.5600000023841858
1743758156.91,-3.2899999618530273,-1.399999976158142,-0.7699999809265137
1743758156.91,-3.5,0.49000000953674316,-1.1200000047683716
1743758156.91,-3.640000104904175,1.8899999856948853,-1.6800000667572021
1743758156.989,-2.870000123977661,2.7300000190734863,-2.0999999046325684
1743758156.989,-2.240000009536743,3.2200000286102295,-2.0999999046325684
1743758156.989,-2.1700000762939453,2.5199999809265137,-1.9600000381469727
1743758156.989,-1.399999976158142,1.8200000524520874,-2.0299999713897705
1743758157.068,-0.5600000023841858,1.1200000047683716,-1.8899999856948853
1743758157.068,-0.49000000953674316,1.1200000047683716,-1.9600000381469727
1743758157.068,-0.8400000333786011,1.399999976158142,-1.8899999856948853
1743758157.068,-0.5600000023841858,1.75,-1.8200000524520874
1743758157.146,0,2.5199999809265137,-2.240000009536743
1743758157.146,0.9800000190734863,3.1500000953674316,-3.009999990463257
1743758157.146,0.7699999809265137,2.799999952316284,-3.9200000762939453
1743758157.146,0.07000000029802322,2.240000009536743,-4.130000114440918
1743758157.225,-0.2800000011920929,3.5,-3.430000066757202
1743758157.225,-0.9800000190734863,5.110000133514404,-2.940000057220459
1743758157.225,-1.4700000286102295,5.670000076293945,-2.870000123977661
1743758157.225,-1.1200000047683716,4.059999942779541,-2.870000123977661
1743758157.303,-1.4700000286102295,2.0999999046325684,-2.5899999141693115
1743758157.303,-2.0999999046325684,0.49000000953674316,-1.5399999618530273
1743758157.303,-3.0799999237060547,-0.49000000953674316,-0.49000000953674316
1743758157.303,-4.130000114440918,-1.4700000286102295,1.2599999904632568
1743758157.382,-3.7799999713897705,-1.8899999856948853,2.240000009536743
1743758157.382,-2.5199999809265137,-1.8899999856948853,1.8200000524520874
1743758157.382,-0.8400000333786011,-1.6100000143051147,-0.14000000059604645
1743758157.382,-0.6299999952316284,0.3499999940395355,-2.450000047683716
1743758157.461,-0.5600000023841858,2.870000123977661,-2.6600000858306885
1743758157.461,-1.1200000047683716,4.900000095367432,-1.6100000143051147
1743758157.461,-0.9800000190734863,5.320000171661377,-0.699999988079071
1743758157.461,-0.21000000834465027,5.25,-0.2800000011920929
1743758157.54,0.42000001668930054,4.269999980926514,-0.6299999952316284
1743758157.54,0.7699999809265137,2.940000057220459,-0.8400000333786011
1743758157.54,0.8400000333786011,0.699999988079071,0.14000000059604645
1743758157.54,0.3499999940395355,0.07000000029802322,0.5600000023841858
1743758157.619,0,0.5600000023841858,0.42000001668930054
1743758157.619,0.07000000029802322,1.190000057220459,-0.49000000953674316
1743758157.619,0.9800000190734863,0.42000001668930054,-1.6800000667572021
1743758157.619,2.450000047683716,0,-2.5899999141693115
1743758157.698,3.640000104904175,-0.2800000011920929,-2.7300000190734863
1743758157.698,4.340000152587891,0.07000000029802322,-3.009999990463257
1743758157.698,4.480000019073486,0.9100000262260437,-3.8499999046325684
1743758157.698,4.619999885559082,2.1700000762939453,-5.389999866485596
1743758157.776,3.1500000953674316,3.5,-6.369999885559082
1743758157.776,1.8200000524520874,4.269999980926514,-5.949999809265137
1743758157.776,1.399999976158142,4.829999923706055,-3.8499999046325684
1743758157.776,0.2800000011920929,1.6800000667572021,-0.7699999809265137
1743758157.855,-0.42000001668930054,-2.309999942779541,0.07000000029802322
1743758157.855,-1.399999976158142,-5.599999904632568,0.2800000011920929
1743758157.855,-0.9800000190734863,-5.039999961853027,1.399999976158142
1743758157.855,0.42000001668930054,-4.130000114440918,1.8200000524520874
1743758157.933,2.6600000858306885,-3.2200000286102295,-0.9800000190734863
1743758157.933,3.8499999046325684,-3.3600001335144043,-4.619999885559082
1743758157.933,5.880000114440918,-0.49000000953674316,-8.329999923706055
1743758157.933,4.409999847412109,3.569999933242798,-9.730000495910645
1743758158.012,1.8899999856948853,8.609999656677246,-8.819999694824219
1743758158.012,-1.6100000143051147,10.569999694824219,-6.090000152587891
1743758158.012,-2.5899999141693115,8.119999885559082,-3.9200000762939453
1743758158.012,-3.569999933242798,5.039999961853027,-2.940000057220459
1743758158.091,-5.389999866485596,2.0299999713897705,-1.2599999904632568
1743758158.091,-7,2.5899999141693115,1.9600000381469727
1743758158.091,-8.609999656677246,2.6600000858306885,5.179999828338623
1743758158.091,-9.100000381469727,3.9200000762939453,7
1743758158.169,-8.260000228881836,1.75,8.75
1743758158.169,-5.179999828338623,-0.699999988079071,8.75
1743758158.169,0.2800000011920929,-2.6600000858306885,7.28000020980835
1743758158.169,5.179999828338623,-1.9600000381469727,4.760000228881836
1743758158.248,6.369999885559082,1.2599999904632568,0.2800000011920929
1743758158.248,7.909999847412109,3.5,-3.2899999618530273
1743758158.248,10.710000038146973,2.5199999809265137,-5.460000038146973
1743758158.248,12.039999961853027,-1.399999976158142,-7.28000020980835
1743758158.327,11.480000495910645,-3.7100000381469727,-9.239999771118164
1743758158.327,9.730000495910645,-3.5,-11.6899995803833
1743758158.327,7,-2.7300000190734863,-12.390000343322754
1743758158.327,5.880000114440918,-1.9600000381469727,-10.850000381469727
1743758158.406,5.460000038146973,-0.21000000834465027,-7.559999942779541
1743758158.406,5.460000038146973,1.6800000667572021,-3.640000104904175
1743758158.406,3.2200000286102295,5.389999866485596,0.14000000059604645
1743758158.406,-0.6299999952316284,6.369999885559082,2.7300000190734863
1743758158.485,-2.6600000858306885,8.260000228881836,4.059999942779541
1743758158.485,-3.3600001335144043,7.769999980926514,5.25
1743758158.485,-4.199999809265137,7.420000076293945,5.740000247955322
1743758158.485,-4.829999923706055,5.53000020980835,5.25
1743758158.564,-4.409999847412109,3.3600001335144043,3.0799999237060547
1743758158.564,-3.8499999046325684,2.309999942779541,0.21000000834465027
1743758158.564,-5.389999866485596,0.07000000029802322,-1.6100000143051147
1743758158.564,-6.650000095367432,-0.21000000834465027,-2.0299999713897705
1743758158.642,-6.720000267028809,0.3499999940395355,-1.4700000286102295
1743758158.642,-6.090000152587891,0.5600000023841858,-0.21000000834465027
1743758158.642,-5.320000171661377,-1.399999976158142,1.1200000047683716
1743758158.642,-4.199999809265137,-2.0299999713897705,0.9100000262260437
1743758158.721,-3.430000066757202,-1.0499999523162842,0.7699999809265137
1743758158.721,-2.799999952316284,1.2599999904632568,1.9600000381469727
1743758158.721,-3.569999933242798,3.640000104904175,3.009999990463257
1743758158.721,-3.5,5.110000133514404,2.870000123977661
1743758158.799,-2.309999942779541,5.809999942779541,1.6800000667572021
1743758158.799,-0.3499999940395355,4.480000019073486,-0.7699999809265137
1743758158.799,0.7699999809265137,3.640000104904175,-3.2899999618530273
1743758158.799,1.8899999856948853,3.2200000286102295,-4.619999885559082
1743758158.878,1.8200000524520874,4.690000057220459,-4.619999885559082
1743758158.878,1.9600000381469727,5.809999942779541,-4.340000152587891
1743758158.878,2.0299999713897705,6.650000095367432,-4.619999885559082
1743758158.878,2.0999999046325684,6.720000267028809,-4.96999979019165
1743758158.957,1.4700000286102295,6.369999885559082,-5.039999961853027
1743758158.957,0.14000000059604645,5.740000247955322,-4.199999809265137
1743758158.957,-1.5399999618530273,3.7799999713897705,-2.240000009536743
1743758158.957,-3.640000104904175,1.8899999856948853,0.14000000059604645
1743758159.036,-5.53000020980835,0.14000000059604645,1.75
1743758159.036,-5.670000076293945,-1.2599999904632568,2.450000047683716
1743758159.036,-5.880000114440918,-3.1500000953674316,2.870000123977661
1743758159.036,-5.809999942779541,-3.990000009536743,3.009999990463257
1743758159.115,-5.389999866485596,-3.5,3.2200000286102295
1743758159.115,-4.480000019073486,-1.399999976158142,2.450000047683716
1743758159.115,-2.870000123977661,1.399999976158142,0.7699999809265137
1743758159.115,-0.7699999809265137,4.340000152587891,-1.9600000381469727
1743758159.194,1.399999976158142,7.490000247955322,-4.409999847412109
1743758159.194,2.1700000762939453,10.079999923706055,-6.019999980926514
1743758159.194,2.6600000858306885,11.550000190734863,-7
1743758159.194,2.0999999046325684,11.829999923706055,-6.650000095367432
1743758159.272,1.1200000047683716,8.470000267028809,-5.25
1743758159.272,-0.3499999940395355,6.159999847412109,-3.5
1743758159.272,-0.9100000262260437,2.5199999809265137,-1.5399999618530273
1743758159.272,-1.8200000524520874,1.0499999523162842,-0.14000000059604645
1743758159.351,-2.380000114440918,0.5600000023841858,0.7699999809265137
1743758159.351,-2.380000114440918,2.799999952316284,1.0499999523162842
1743758159.351,-2.5899999141693115,4.409999847412109,0.3499999940395355
1743758159.351,-2.5899999141693115,6.440000057220459,-0.5600000023841858
1743758159.429,-2.0999999046325684,7.28000020980835,-1.2599999904632568
1743758159.429,-2.240000009536743,6.929999828338623,-1.8200000524520874
1743758159.429,-2.5199999809265137,4.900000095367432,-2.0299999713897705
1743758159.429,-3.0799999237060547,3.2200000286102295,-1.3300000429153442
1743758159.508,-3.9200000762939453,0.2800000011920929,-0.07000000029802322
1743758159.508,-5.110000133514404,-2.450000047683716,0.6299999952316284
1743758159.508,-5.740000247955322,-4.269999980926514,1.75
1743758159.508,-5.25,-4.690000057220459,2.240000009536743
1743758159.587,-4.829999923706055,-3.0799999237060547,2.309999942779541
1743758159.587,-3.7799999713897705,-0.42000001668930054,2.0999999046325684
1743758159.587,-2.240000009536743,3.0799999237060547,0.9800000190734863
1743758159.587,-0.21000000834465027,6.369999885559082,-0.49000000953674316
1743758159.666,1.6800000667572021,8.260000228881836,-1.8200000524520874
1743758159.666,2.0999999046325684,7.769999980926514,-2.870000123977661
1743758159.666,2.6600000858306885,6.789999961853027,-3.569999933242798
1743758159.666,2.380000114440918,5.389999866485596,-3.990000009536743
1743758159.745,1.6800000667572021,3.569999933242798,-3.990000009536743
1743758159.745,0.9800000190734863,1.4700000286102295,-3.9200000762939453
1743758159.745,1.3300000429153442,0.14000000059604645,-3.2200000286102295
1743758159.745,0.9100000262260437,-0.6299999952316284,-2.799999952316284
1743758159.824,0.21000000834465027,-0.2800000011920929,-2.240000009536743
1743758159.824,0.14000000059604645,0.49000000953674316,-1.2599999904632568
1743758159.824,0.42000001668930054,1.5399999618530273,-0.2800000011920929
1743758159.824,0.07000000029802322,2.870000123977661,-0.699999988079071
1743758159.902,0,3.7100000381469727,-1.1200000047683716
1743758159.902,-0.49000000953674316,3.3600001335144043,-1.0499999523162842
1743758159.902,-1.6800000667572021,1.399999976158142,-0.6299999952316284
1743758159.902,-2.450000047683716,0,-0.699999988079071
1743758159.981,-3.2200000286102295,-0.5600000023841858,-0.5600000023841858
1743758159.981,-3.569999933242798,-0.49000000953674316,-0.42000001668930054
1743758159.981,-2.799999952316284,0.14000000059604645,-1.0499999523162842
1743758159.981,-1.6800000667572021,-0.07000000029802322,-2.240000009536743
1743758160.059,-0.699999988079071,1.1200000047683716,-3.1500000953674316
1743758160.059,-1.6100000143051147,3.2200000286102295,-3.3600001335144043
1743758160.059,-1.75,4.550000190734863,-3.1500000953674316
1743758160.059,-2.0299999713897705,6.090000152587891,-2.240000009536743
1743758160.138,-2.1700000762939453,5.53000020980835,-1.9600000381469727
1743758160.138,-2.5199999809265137,5.670000076293945,-1.75
1743758160.138,-1.75,3.8499999046325684,-1.8899999856948853
1743758160.138,-1.8200000524520874,2.6600000858306885,-2.0299999713897705
1743758160.217,-1.8200000524520874,0.699999988079071,-2.5199999809265137
1743758160.217,-1.8200000524520874,1.9600000381469727,-3.1500000953674316
1743758160.217,-2.380000114440918,3.2899999618530273,-3.3600001335144043
1743758160.217,-2.6600000858306885,5.389999866485596,-3.7799999713897705
1743758160.295,-3.009999990463257,6.090000152587891,-3.9200000762939453
1743758160.295,-3.430000066757202,6.090000152587891,-3.1500000953674316
1743758160.295,-4.130000114440918,4.550000190734863,-2.0299999713897705
1743758160.295,-4.130000114440918,2.380000114440918,-0.9800000190734863
1743758160.374,-4.340000152587891,0.42000001668930054,-0.07000000029802322
1743758160.374,-4.900000095367432,-0.2800000011920929,0.6299999952316284
1743758160.374,-5.320000171661377,-0.07000000029802322,1.1200000047683716
1743758160.374,-4.619999885559082,0.21000000834465027,0.8400000333786011
1743758160.453,-3.2200000286102295,0.49000000953674316,-0.42000001668930054
1743758160.453,-2.450000047683716,1.5399999618530273,-1.8899999856948853
1743758160.453,-1.6100000143051147,2.870000123977661,-3.009999990463257
1743758160.453,-0.8400000333786011,4.409999847412109,-3.569999933242798
1743758160.532,-0.5600000023841858,5.599999904632568,-3.430000066757202
1743758160.532,-0.6299999952316284,5.949999809265137,-2.799999952316284
1743758160.532,-1.190000057220459,4.760000228881836,-2.309999942779541
1743758160.532,-0.3499999940395355,3.640000104904175,-2.309999942779541
1743758160.611,0.14000000059604645,3.569999933242798,-1.6100000143051147
1743758160.611,-0.6299999952316284,1.9600000381469727,-1.2599999904632568
1743758160.611,-1.4700000286102295,2.380000114440918,-0.6299999952316284
1743758160.611,-2.0999999046325684,1.75,0.42000001668930054
1743758160.689,-2.0299999713897705,2.0299999713897705,0.3499999940395355
1743758160.689,-1.0499999523162842,1.4700000286102295,0
1743758160.689,0.49000000953674316,1.8200000524520874,-1.3300000429153442
1743758160.689,0.3499999940395355,2.799999952316284,-2.240000009536743
1743758160.768,0.14000000059604645,2.799999952316284,-2.5199999809265137
1743758160.768,-0.49000000953674316,2.240000009536743,-1.5399999618530273
1743758160.768,-1.399999976158142,0.8400000333786011,-0.7699999809265137
1743758160.768,-1.190000057220459,1.1200000047683716,-1.8200000524520874
1743758160.847,-1.399999976158142,0.49000000953674316,-2.5899999141693115
1743758160.847,-1.3300000429153442,0.699999988079071,-2.870000123977661
1743758160.847,-2.0999999046325684,1.190000057220459,-2.450000047683716
1743758160.847,-3.2200000286102295,2.0999999046325684,-1.5399999618530273
1743758160.925,-3.7100000381469727,2.0999999046325684,-0.7699999809265137
1743758160.925,-3.2200000286102295,1.75,-0.6299999952316284
1743758160.925,-1.9600000381469727,1.6100000143051147,-1.0499999523162842
1743758160.925,-1.4700000286102295,1.8899999856948853,-1.3300000429153442
1743758161.004,-1.8200000524520874,2.0999999046325684,-1.2599999904632568
1743758161.004,-2.240000009536743,2.380000114440918,-1.0499999523162842
1743758161.004,-2.309999942779541,1.6800000667572021,-0.9100000262260437
1743758161.004,-1.8200000524520874,1.0499999523162842,-1.3300000429153442
1743758161.083,-1.2599999904632568,-0.42000001668930054,-2.0999999046325684
1743758161.083,-0.699999988079071,-1.4700000286102295,-2.380000114440918
1743758161.083,-0.14000000059604645,-1.5399999618530273,-2.309999942779541
1743758161.083,-0.2800000011920929,-0.21000000834465027,-2.450000047683716
1743758161.162,-0.2800000011920929,1.4700000286102295,-2.309999942779541
1743758161.162,-0.42000001668930054,2.870000123977661,-1.8899999856948853
1743758161.162,-0.14000000059604645,2.309999942779541,-1.75
1743758161.162,0.21000000834465027,2.380000114440918,-1.8899999856948853
1743758161.241,-0.14000000059604645,2.0299999713897705,-1.399999976158142
1743758161.241,-1.1200000047683716,1.4700000286102295,-0.699999988079071
1743758161.241,-1.190000057220459,0.42000001668930054,-0.2800000011920929
1743758161.241,-0.6299999952316284,1.2599999904632568,-0.42000001668930054
1743758161.319,0.07000000029802322,3.3600001335144043,-1.4700000286102295
