                                                                                LinearAcceleration                                                              04.04.2511.32.4552  
Timestamp,AccX,AccY,AccZ
1743758136.83,4.4938812255859375,-3.7760090827941895,7.934883117675781
1743758136.83,4.603955268859863,-3.752079963684082,7.949240684509277
1743758136.83,4.536953926086426,-3.723365068435669,7.930097579956055
1743758136.83,4.551311016082764,-3.6659352779388428,7.9013824462890625
1743758136.903,4.335949420928955,-3.68986439704895,7.843952655792236
1743758136.903,4.489095687866211,-3.555861473083496,7.877453327178955
1743758136.903,4.297662734985352,-3.737722396850586,7.858310222625732
1743758136.903,4.230661392211914,-3.6707210540771484,7.877453327178955
1743758136.976,4.393379211425781,-3.7425081729888916,7.939669132232666
1743758136.976,4.489095687866211,-3.8765110969543457,7.776951313018799
1743758136.976,4.632669925689697,-3.919583559036255,7.638162612915039
1743758136.976,4.666170597076416,-3.9387266635894775,7.64773416519165
1743758137.049,4.7953877449035645,-4.101444244384766,7.590304374694824
1743758137.049,4.828888416290283,-4.206732273101807,7.5998759269714355
1743758137.049,4.804959297180176,-4.154088497161865,7.642948627471924
1743758137.049,4.886318206787109,-4.144516944885254,7.70037841796875
1743758137.122,4.962891578674316,-4.216303825378418,7.542446136474609
1743758137.122,5.010749340057373,-4.158874034881592,7.508945465087891
1743758137.122,5.0059638023376465,-4.0583720207214355,7.671663284301758
1743758137.122,5.183038711547852,-4.048800468444824,7.714735507965088
1743758137.195,5.163895606994629,-3.9961564540863037,7.585518836975098
1743758137.195,5.053822040557861,-3.9243693351745605,7.652520179748535
1743758137.195,4.924604892730713,-3.8621537685394287,7.753022193908691
1743758137.195,4.74752950668335,-3.823867082595825,7.705163955688477
1743758137.268,4.6613850593566895,-3.8047239780426025,7.719521522521973
1743758137.268,4.632669925689697,-3.7185792922973633,7.638162612915039
1743758137.268,4.632669925689697,-3.7137932777404785,7.762593746185303
1743758137.268,4.623098373413086,-3.68986439704895,7.772165298461914
1743758137.341,4.685314178466797,-3.68986439704895,7.70037841796875
1743758137.341,4.718814849853516,-3.675506830215454,7.70037841796875
1743758137.341,4.699671268463135,-3.6802926063537598,7.800880432128906
1743758137.341,4.776244640350342,-3.6132912635803223,7.858310222625732
1743758137.414,4.74752950668335,-3.584576368331909,7.896596908569336
1743758137.414,4.7953877449035645,-3.6228628158569336,7.88223934173584
1743758137.414,4.824102878570557,-3.555861473083496,7.9683837890625
1743758137.414,4.876746654510498,-3.618077039718628,7.963598251342773
1743758137.487,4.824102878570557,-3.6420061588287354,7.791308879852295
1743758137.487,4.637455940246582,-3.6659352779388428,7.843952655792236
1743758137.487,4.833674430847168,-3.6850783824920654,7.896596908569336
1743758137.487,4.723600387573242,-3.694650173187256,7.738664627075195
1743758137.56,4.7953877449035645,-3.7472941875457764,7.757808208465576
1743758137.56,4.723600387573242,-3.6994359493255615,7.772165298461914
1743758137.56,4.694885730743408,-3.6563634872436523,7.724307537078857
1743758137.56,4.74752950668335,-3.809509754180908,7.60466194152832
1743758137.633,4.757101058959961,-3.8477962017059326,7.714735507965088
1743758137.633,4.9006757736206055,-3.7568657398223877,7.757808208465576
1743758137.633,4.953319549560547,-3.905225992202759,7.776951313018799
1743758137.633,4.9437479972839355,-3.843010425567627,7.729093074798584
1743758137.706,4.929390907287598,-3.8477962017059326,7.7960944175720215
1743758137.706,4.9006757736206055,-3.886082649230957,7.757808208465576
1743758137.706,4.824102878570557,-3.8334388732910156,7.628591060638428
1743758137.706,4.7044572830200195,-3.890868663787842,7.638162612915039
1743758137.779,4.7953877449035645,-3.7999379634857178,7.6620917320251465
1743758137.779,4.728386402130127,-3.8525819778442383,7.628591060638428
1743758137.779,4.718814849853516,-3.919583559036255,7.671663284301758
1743758137.779,4.785816192626953,-3.886082649230957,7.619019508361816
1743758137.852,4.848031997680664,-3.929155111312866,7.580732822418213
1743758137.852,4.924604892730713,-3.933940887451172,7.628591060638428
1743758137.852,4.99160623550415,-3.948298454284668,7.60466194152832
1743758137.852,4.886318206787109,-3.948298454284668,7.623805046081543
1743758137.925,4.757101058959961,-3.91479754447937,7.70037841796875
1743758137.925,4.603955268859863,-3.943512439727783,7.733879089355469
1743758137.925,4.584811687469482,-3.9530842304229736,7.709949970245361
1743758137.925,4.541739463806152,-4.077515602111816,7.609447956085205
1743758137.998,4.714028835296631,-4.053586483001709,7.5568037033081055
1743758137.998,4.771458625793457,-4.053586483001709,7.609447956085205
1743758137.998,4.6613850593566895,-4.096658706665039,7.532874584197998
1743758137.998,4.6757426261901855,-4.10623025894165,7.6620917320251465
1743758138.071,4.709243297576904,-4.0440144538879395,7.781737327575684
1743758138.071,4.848031997680664,-3.9961564540863037,7.815237998962402
1743758138.071,4.848031997680664,-3.9674415588378906,7.757808208465576
1743758138.071,4.819316864013672,-3.87172532081604,7.757808208465576
1743758138.144,4.74752950668335,-3.857367753982544,7.834381103515625
1743758138.144,4.7953877449035645,-3.8812968730926514,7.824809551239014
1743758138.144,4.694885730743408,-3.9817991256713867,7.666877746582031
1743758138.144,4.680528163909912,-3.87172532081604,7.810451984405518
1743758138.217,4.618312835693359,-3.929155111312866,7.705163955688477
1743758138.217,4.728386402130127,-3.943512439727783,7.724307537078857
1743758138.217,4.709243297576904,-3.933940887451172,7.6908063888549805
1743758138.217,4.714028835296631,-3.886082649230957,7.642948627471924
1743758138.29,4.474738121032715,-3.9865849018096924,7.676449298858643
1743758138.29,4.379021644592285,-3.8956544399261475,7.853524208068848
1743758138.29,4.402950763702393,-3.9387266635894775,7.762593746185303
1743758138.29,4.603955268859863,-3.962655782699585,7.748236179351807
1743758138.363,4.74752950668335,-3.9530842304229736,7.791308879852295
1743758138.363,4.642241477966309,-3.929155111312866,7.719521522521973
1743758138.363,4.627884387969971,-3.977013349533081,7.762593746185303
1743758138.363,4.431665897369385,-3.991370677947998,7.776951313018799
1743758138.436,4.393379211425781,-4.024871349334717,7.858310222625732
1743758138.436,4.374236106872559,-3.9674415588378906,7.748236179351807
1743758138.436,4.350306987762451,-4.005728244781494,7.7960944175720215
1743758138.436,4.503453254699707,-4.067943572998047,7.714735507965088
1743758138.509,4.532167911529541,-4.067943572998047,7.781737327575684
1743758138.509,4.536953926086426,-4.039228916168213,7.820023536682129
1743758138.509,4.513024806976318,-3.9961564540863037,7.686020851135254
1743758138.509,4.38380765914917,-4.029657363891602,7.78652286529541
1743758138.582,4.455595016479492,-3.9722273349761963,7.834381103515625
1743758138.582,4.637455940246582,-4.091872692108154,7.781737327575684
1743758138.582,4.637455940246582,-4.206732273101807,7.695592403411865
1743758138.582,4.642241477966309,-4.115801811218262,7.748236179351807
1743758138.655,4.498667240142822,-4.072729587554932,7.776951313018799
1743758138.655,4.402950763702393,-4.067943572998047,7.657305717468262
1743758138.655,4.402950763702393,-4.091872692108154,7.580732822418213
1743758138.655,4.345520973205566,-4.158874034881592,7.762593746185303
1743758138.728,4.393379211425781,-4.101444244384766,7.82959508895874
1743758138.728,4.441237449645996,-4.082301139831543,7.824809551239014
1743758138.728,4.508238792419434,-4.048800468444824,7.78652286529541
1743758138.728,4.56566858291626,-4.0440144538879395,7.762593746185303
1743758138.801,4.4651665687561035,-4.087087154388428,7.78652286529541
1743758138.801,4.417308330535889,-4.072729587554932,7.9013824462890625
1743758138.801,4.407736778259277,-4.0440144538879395,7.887024879455566
1743758138.801,4.412522315979004,-4.087087154388428,7.7673797607421875
1743758138.874,4.4268798828125,-4.053586483001709,7.733879089355469
1743758138.874,4.335949420928955,-3.9100117683410645,7.7673797607421875
1743758138.874,4.316806316375732,-4.0583720207214355,7.748236179351807
1743758138.874,4.20194673538208,-4.134945392608643,7.609447956085205
1743758138.947,4.111016273498535,-4.144516944885254,7.623805046081543
1743758138.947,4.173231601715088,-4.139730930328369,7.781737327575684
1743758138.947,4.345520973205566,-4.125373363494873,7.753022193908691
1743758138.947,4.407736778259277,-4.20194673538208,7.709949970245361
1743758139.02,4.364664554595947,-4.206732273101807,7.772165298461914
1743758139.02,4.441237449645996,-4.192375183105469,7.853524208068848
1743758139.02,4.489095687866211,-4.206732273101807,7.824809551239014
1743758139.02,4.407736778259277,-4.178017616271973,7.9013824462890625
1743758139.093,4.273733615875244,-4.139730930328369,7.867881774902344
1743758139.093,4.388593673706055,-4.1493024826049805,7.949240684509277
1743758139.093,4.474738121032715,-4.173231601715088,7.891810894012451
1743758139.093,4.431665897369385,-4.096658706665039,7.7960944175720215
1743758139.166,4.431665897369385,-4.048800468444824,7.824809551239014
1743758139.166,4.326377868652344,-4.096658706665039,7.7673797607421875
1743758139.166,4.417308330535889,-4.048800468444824,7.78652286529541
1743758139.166,4.379021644592285,-4.087087154388428,7.7960944175720215
1743758139.239,4.350306987762451,-4.048800468444824,7.820023536682129
1743758139.239,4.3311638832092285,-4.144516944885254,7.800880432128906
1743758139.239,4.3598785400390625,-4.067943572998047,7.762593746185303
1743758139.239,4.312020301818848,-4.1205878257751465,7.858310222625732
1743758139.312,4.364664554595947,-4.06315803527832,7.834381103515625
1743758139.312,4.345520973205566,-4.082301139831543,7.853524208068848
1743758139.312,4.302448749542236,-4.067943572998047,7.815237998962402
1743758139.312,4.326377868652344,-4.101444244384766,7.7960944175720215
1743758139.385,4.369450092315674,-4.077515602111816,7.772165298461914
1743758139.385,4.374236106872559,-4.111016273498535,7.887024879455566
1743758139.385,4.474738121032715,-4.039228916168213,7.891810894012451
1743758139.385,4.431665897369385,-4.091872692108154,7.843952655792236
1743758139.458,4.345520973205566,-4.0440144538879395,7.805665969848633
1743758139.458,4.364664554595947,-4.048800468444824,7.738664627075195
1743758139.458,4.436451435089111,-4.039228916168213,7.843952655792236
1743758139.458,4.3598785400390625,-4.077515602111816,7.8726677894592285
1743758139.531,4.364664554595947,-4.087087154388428,7.820023536682129
1743758139.531,4.34073543548584,-4.111016273498535,7.781737327575684
1743758139.531,4.407736778259277,-4.053586483001709,7.738664627075195
1743758139.531,4.292877197265625,-3.991370677947998,7.863095760345459
1743758139.604,4.28809118270874,-3.9722273349761963,7.843952655792236
1743758139.604,4.2545905113220215,-4.158874034881592,7.7960944175720215
1743758139.604,4.316806316375732,-4.06315803527832,7.82959508895874
1743758139.604,4.417308330535889,-4.087087154388428,7.776951313018799
1743758139.677,4.450809001922607,-4.034442901611328,7.843952655792236
1743758139.677,4.446023464202881,-4.005728244781494,7.834381103515625
1743758139.677,4.436451435089111,-4.024871349334717,7.848738670349121
1743758139.677,4.297662734985352,-4.053586483001709,7.695592403411865
1743758139.75,4.264162063598633,-4.053586483001709,7.791308879852295
1743758139.75,4.197160720825195,-4.111016273498535,7.74345064163208
1743758139.75,4.268948078155518,-4.077515602111816,7.6908063888549805
1743758139.75,4.517810344696045,-4.154088497161865,7.748236179351807
1743758139.823,4.546525478363037,-4.197160720825195,7.74345064163208
1743758139.823,4.489095687866211,-4.077515602111816,7.78652286529541
1743758139.823,4.460380554199219,-4.0152997970581055,7.848738670349121
1743758139.823,4.517810344696045,-3.9674415588378906,7.992312908172607
1743758139.896,4.694885730743408,-3.919583559036255,8.04017162322998
1743758139.896,4.757101058959961,-3.828652858734131,8.102386474609375
1743758139.896,4.536953926086426,-3.6707210540771484,8.164602279663086
1743758139.896,4.407736778259277,-3.5750045776367188,8.116744041442871
1743758139.969,4.393379211425781,-3.6085054874420166,8.006670951843262
1743758139.969,4.316806316375732,-3.5462896823883057,8.04017162322998
1743758139.969,4.302448749542236,-3.4457876682281494,8.016242027282715
1743758139.969,4.111016273498535,-3.407501220703125,7.987527370452881
1743758140.042,4.091872692108154,-3.4122869968414307,8.0736722946167
1743758140.042,4.163660049438477,-3.3357138633728027,8.04017162322998
1743758140.042,4.3598785400390625,-3.393143653869629,8.030599594116211
1743758140.042,4.125373363494873,-3.407501220703125,7.9013824462890625
1743758140.115,4.101444244384766,-3.4410018920898438,7.834381103515625
1743758140.115,4.101444244384766,-3.54150390625,7.867881774902344
1743758140.115,4.10623025894165,-3.7281508445739746,7.791308879852295
1743758140.115,4.374236106872559,-3.6850783824920654,7.915740013122559
1743758140.188,4.484309673309326,-3.766437292098999,7.982741355895996
1743758140.188,4.761887073516846,-3.7425081729888916,8.15981674194336
1743758140.188,4.718814849853516,-3.675506830215454,8.169387817382812
1743758140.188,4.752315521240234,-3.6276485919952393,8.140673637390137
1743758140.261,4.6613850593566895,-3.570218801498413,8.15024471282959
1743758140.261,4.714028835296631,-3.6802926063537598,8.121530532836914
1743758140.261,4.7044572830200195,-3.8525819778442383,7.877453327178955
1743758140.261,4.551311016082764,-3.8621537685394287,7.906168460845947
1743758140.334,4.508238792419434,-3.886082649230957,7.810451984405518
1743758140.334,4.60874080657959,-3.943512439727783,7.724307537078857
1743758140.334,4.733172416687012,-3.8812968730926514,7.719521522521973
1743758140.334,4.685314178466797,-3.929155111312866,7.74345064163208
1743758140.407,4.771458625793457,-4.082301139831543,7.705163955688477
1743758140.407,4.6757426261901855,-4.115801811218262,7.671663284301758
1743758140.407,4.862389087677002,-4.154088497161865,7.6620917320251465
1743758140.407,5.001177787780762,-4.173231601715088,7.64773416519165
1743758140.48,4.958105564117432,-4.2258758544921875,7.4658732414245605
1743758140.48,4.871960639953613,-4.259376525878906,7.5280890464782715
1743758140.48,4.737957954406738,-4.216303825378418,7.513731479644775
1743758140.48,4.651813507080078,-4.278519630432129,7.537660598754883
1743758140.553,4.5704545974731445,-4.259376525878906,7.499373912811279
1743758140.553,4.5704545974731445,-4.240232944488525,7.427586555480957
1743758140.553,4.7044572830200195,-4.34073543548584,7.3605852127075195
1743758140.553,4.7666730880737305,-4.292877197265625,7.408443450927734
1743758140.626,4.7953877449035645,-4.321591854095459,7.374942779541016
1743758140.626,4.828888416290283,-4.3311638832092285,7.441944122314453
1743758140.626,4.7666730880737305,-4.249804973602295,7.504159927368164
1743758140.626,4.771458625793457,-4.20194673538208,7.580732822418213
1743758140.699,4.752315521240234,-4.24501895904541,7.499373912811279
1743758140.699,4.857603549957275,-4.101444244384766,7.652520179748535
1743758140.699,4.852817535400391,-4.130159378051758,7.633376598358154
1743758140.699,4.776244640350342,-4.091872692108154,7.619019508361816
1743758140.772,4.56566858291626,-4.06315803527832,7.733879089355469
1743758140.772,4.651813507080078,-3.933940887451172,7.714735507965088
1743758140.772,4.728386402130127,-3.886082649230957,7.729093074798584
1743758140.772,4.699671268463135,-3.8765110969543457,7.738664627075195
1743758140.845,4.623098373413086,-3.91479754447937,7.671663284301758
1743758140.845,4.517810344696045,-3.8477962017059326,7.6620917320251465
1743758140.845,4.623098373413086,-3.814295530319214,7.800880432128906
1743758140.845,4.594383716583252,-3.795152187347412,7.791308879852295
1743758140.918,4.627884387969971,-3.7472941875457764,7.78652286529541
1743758140.918,4.513024806976318,-3.780794858932495,7.7960944175720215
1743758140.918,4.666170597076416,-3.785580635070801,7.800880432128906
1743758140.918,4.694885730743408,-3.809509754180908,7.815237998962402
1743758140.991,4.680528163909912,-3.7281508445739746,7.877453327178955
1743758140.991,4.642241477966309,-3.795152187347412,7.791308879852295
1743758140.991,4.666170597076416,-3.8334388732910156,7.810451984405518
1743758140.991,4.680528163909912,-3.795152187347412,7.906168460845947
1743758141.064,4.603955268859863,-3.7760090827941895,7.843952655792236
1743758141.064,4.4795241355896,-3.766437292098999,7.834381103515625
1743758141.064,4.345520973205566,-3.7329366207122803,7.863095760345459
1743758141.064,4.474738121032715,-3.823867082595825,7.906168460845947
1743758141.137,4.637455940246582,-3.8190813064575195,7.920525550842285
1743758141.137,4.776244640350342,-3.7999379634857178,7.939669132232666
1743758141.137,4.776244640350342,-3.814295530319214,7.887024879455566
1743758141.137,4.541739463806152,-3.843010425567627,7.762593746185303
1743758141.21,4.503453254699707,-3.828652858734131,7.853524208068848
1743758141.21,4.4938812255859375,-3.843010425567627,7.810451984405518
1743758141.21,4.580026149749756,-3.857367753982544,7.863095760345459
1743758141.21,4.670956611633301,-3.87172532081604,7.82959508895874
1743758141.283,4.699671268463135,-3.886082649230957,7.810451984405518
1743758141.283,4.627884387969971,-3.87172532081604,7.906168460845947
1743758141.283,4.647027492523193,-3.814295530319214,7.954026699066162
1743758141.283,4.551311016082764,-3.7999379634857178,7.863095760345459
1743758141.356,4.551311016082764,-3.7472941875457764,7.9013824462890625
1743758141.356,4.651813507080078,-3.723365068435669,7.834381103515625
1743758141.356,4.580026149749756,-3.7616515159606934,7.834381103515625
1743758141.356,4.6757426261901855,-3.704221725463867,7.843952655792236
1743758141.429,4.536953926086426,-3.752079963684082,7.867881774902344
1743758141.429,4.5991692543029785,-3.675506830215454,7.858310222625732
1743758141.429,4.556097030639648,-3.7425081729888916,7.7960944175720215
1743758141.429,4.594383716583252,-3.6563634872436523,7.781737327575684
1743758141.502,4.513024806976318,-3.709007501602173,7.800880432128906
1743758141.502,4.580026149749756,-3.7281508445739746,7.858310222625732
1743758141.502,4.594383716583252,-3.7329366207122803,7.810451984405518
1743758141.502,4.503453254699707,-3.785580635070801,7.834381103515625
1743758141.575,4.536953926086426,-3.723365068435669,7.954026699066162
1743758141.575,4.455595016479492,-3.7472941875457764,7.858310222625732
1743758141.575,4.551311016082764,-3.843010425567627,7.915740013122559
1743758141.575,4.603955268859863,-3.857367753982544,7.800880432128906
1743758141.648,4.714028835296631,-3.7903664112091064,7.949240684509277
1743758141.648,4.613526821136475,-3.814295530319214,7.88223934173584
1743758141.648,4.584811687469482,-3.8669395446777344,7.863095760345459
1743758141.648,4.5991692543029785,-3.823867082595825,7.858310222625732
1743758141.721,4.699671268463135,-3.8669395446777344,7.88223934173584
1743758141.721,4.74752950668335,-3.8382246494293213,7.877453327178955
1743758141.721,4.656599044799805,-3.828652858734131,7.848738670349121
1743758141.721,4.575240135192871,-3.7712230682373047,7.834381103515625
1743758141.794,4.460380554199219,-3.6850783824920654,8.006670951843262
1743758141.794,4.422094345092773,-3.7281508445739746,7.896596908569336
1743758141.794,4.398165225982666,-3.785580635070801,7.748236179351807
1743758141.794,4.513024806976318,-3.7616515159606934,7.781737327575684
1743758141.867,4.575240135192871,-3.7568657398223877,7.738664627075195
1743758141.867,4.623098373413086,-3.7425081729888916,7.834381103515625
1743758141.867,4.541739463806152,-3.780794858932495,7.863095760345459
1743758141.867,4.498667240142822,-3.675506830215454,7.939669132232666
1743758141.94,4.4651665687561035,-3.7616515159606934,7.824809551239014
1743758141.94,4.560883045196533,-3.704221725463867,7.810451984405518
1743758141.94,4.584811687469482,-3.7760090827941895,7.791308879852295
1743758141.94,4.5704545974731445,-3.7903664112091064,7.939669132232666
1743758142.013,4.6613850593566895,-3.7472941875457764,7.815237998962402
1743758142.013,4.52259635925293,-3.7472941875457764,7.88223934173584
1743758142.013,4.60874080657959,-3.752079963684082,7.867881774902344
1743758142.013,4.575240135192871,-3.7616515159606934,7.910953998565674
1743758142.086,4.551311016082764,-3.7712230682373047,7.83916711807251
1743758142.086,4.541739463806152,-3.7472941875457764,7.858310222625732
1743758142.086,4.503453254699707,-3.737722396850586,7.757808208465576
1743758142.086,4.5704545974731445,-3.823867082595825,7.843952655792236
1743758142.159,4.670956611633301,-3.7760090827941895,7.906168460845947
1743758142.159,4.694885730743408,-3.7568657398223877,7.8726677894592285
1743758142.159,4.632669925689697,-3.7137932777404785,7.910953998565674
1743758142.159,4.5704545974731445,-3.709007501602173,7.843952655792236
1743758142.232,4.613526821136475,-3.704221725463867,7.9013824462890625
1743758142.232,4.556097030639648,-3.7472941875457764,7.910953998565674
1743758142.232,4.6613850593566895,-3.6420061588287354,7.973169803619385
1743758142.232,4.556097030639648,-3.7472941875457764,7.83916711807251
1743758142.305,4.556097030639648,-3.632434368133545,7.877453327178955
1743758142.305,4.503453254699707,-3.7472941875457764,7.887024879455566
1743758142.305,4.508238792419434,-3.6850783824920654,7.92531156539917
1743758142.305,4.642241477966309,-3.704221725463867,7.944454669952393
1743758142.378,4.680528163909912,-3.6276485919952393,7.920525550842285
1743758142.378,4.670956611633301,-3.68986439704895,7.92531156539917
1743758142.378,4.4938812255859375,-3.618077039718628,7.987527370452881
1743758142.378,4.503453254699707,-3.6802926063537598,7.973169803619385
1743758142.451,4.666170597076416,-3.675506830215454,7.944454669952393
1743758142.451,4.656599044799805,-3.6850783824920654,7.88223934173584
1743758142.451,4.623098373413086,-3.752079963684082,7.863095760345459
1743758142.451,4.503453254699707,-3.7137932777404785,7.824809551239014
1743758142.524,4.541739463806152,-3.6707210540771484,7.9779558181762695
1743758142.524,4.498667240142822,-3.709007501602173,7.930097579956055
1743758142.524,4.551311016082764,-3.661149263381958,7.834381103515625
1743758142.524,4.546525478363037,-3.6802926063537598,7.858310222625732
1743758142.597,4.714028835296631,-3.7137932777404785,7.954026699066162
1743758142.597,4.781030178070068,-3.694650173187256,7.92531156539917
1743758142.597,4.694885730743408,-3.766437292098999,7.939669132232666
1743758142.597,4.651813507080078,-3.6994359493255615,7.891810894012451
1743758142.67,4.52259635925293,-3.694650173187256,7.997098922729492
1743758142.67,4.431665897369385,-3.709007501602173,7.958812236785889
1743758142.67,4.402950763702393,-3.618077039718628,8.016242027282715
1743758142.67,4.474738121032715,-3.6994359493255615,7.863095760345459
1743758142.743,4.56566858291626,-3.6850783824920654,7.83916711807251
1743758142.743,4.556097030639648,-3.6994359493255615,7.848738670349121
1743758142.743,4.627884387969971,-3.694650173187256,7.915740013122559
1743758142.743,4.4938812255859375,-3.7185792922973633,7.800880432128906
1743758142.816,4.46995210647583,-3.694650173187256,7.863095760345459
1743758142.816,4.52259635925293,-3.7425081729888916,7.88223934173584
1743758142.816,4.60874080657959,-3.6994359493255615,7.906168460845947
1743758142.816,4.498667240142822,-3.6659352779388428,7.877453327178955
1743758142.889,4.355092525482178,-3.7999379634857178,7.8726677894592285
1743758142.889,4.312020301818848,-3.780794858932495,7.88223934173584
1743758142.889,4.46995210647583,-3.814295530319214,7.934883117675781
1743758142.889,4.642241477966309,-3.886082649230957,7.9013824462890625
1743758142.962,4.613526821136475,-3.8382246494293213,7.939669132232666
1743758142.962,4.627884387969971,-3.8382246494293213,7.963598251342773
1743758142.962,4.532167911529541,-3.905225992202759,7.934883117675781
1743758142.962,4.513024806976318,-3.8669395446777344,7.949240684509277
1743758143.035,4.560883045196533,-3.785580635070801,8.001884460449219
1743758143.035,4.575240135192871,-3.766437292098999,7.800880432128906
1743758143.035,4.446023464202881,-3.8621537685394287,7.810451984405518
1743758143.035,4.297662734985352,-3.8621537685394287,7.853524208068848
1743758143.108,4.379021644592285,-3.886082649230957,7.7960944175720215
1743758143.108,4.527381896972656,-3.7712230682373047,7.887024879455566
1743758143.108,4.642241477966309,-3.766437292098999,7.915740013122559
1743758143.108,4.532167911529541,-3.8382246494293213,7.877453327178955
1743758143.181,4.474738121032715,-3.7999379634857178,7.887024879455566
1743758143.181,4.441237449645996,-3.8047239780426025,7.863095760345459
1743758143.181,4.508238792419434,-3.7472941875457764,7.863095760345459
1743758143.181,4.551311016082764,-3.795152187347412,7.891810894012451
1743758143.254,4.670956611633301,-3.8334388732910156,7.820023536682129
1743758143.254,4.52259635925293,-3.87172532081604,7.70037841796875
1743758143.254,4.527381896972656,-3.7999379634857178,7.843952655792236
1743758143.254,4.34073543548584,-3.809509754180908,7.9013824462890625
1743758143.327,4.422094345092773,-3.7281508445739746,7.949240684509277
1743758143.327,4.4651665687561035,-3.857367753982544,7.858310222625732
1743758143.327,4.46995210647583,-3.9243693351745605,7.748236179351807
1743758143.327,4.536953926086426,-3.857367753982544,7.863095760345459
1743758143.4,4.618312835693359,-3.9243693351745605,7.910953998565674
1743758143.4,4.627884387969971,-3.8765110969543457,7.824809551239014
1743758143.4,4.398165225982666,-3.8190813064575195,7.810451984405518
1743758143.4,4.5704545974731445,-3.905225992202759,7.963598251342773
1743758143.473,4.632669925689697,-3.9674415588378906,7.877453327178955
1743758143.473,4.74752950668335,-3.962655782699585,7.810451984405518
1743758143.473,4.580026149749756,-3.948298454284668,7.671663284301758
1743758143.473,4.513024806976318,-3.929155111312866,7.724307537078857
1743758143.546,4.503453254699707,-3.905225992202759,7.815237998962402
1743758143.546,4.647027492523193,-3.948298454284668,7.824809551239014
1743758143.546,4.560883045196533,-3.9243693351745605,7.676449298858643
1743758143.546,4.541739463806152,-3.9243693351745605,7.800880432128906
1743758143.619,4.575240135192871,-3.8047239780426025,7.800880432128906
1743758143.619,4.551311016082764,-3.933940887451172,7.82959508895874
1743758143.619,4.536953926086426,-3.8765110969543457,7.6908063888549805
1743758143.619,4.694885730743408,-3.8525819778442383,7.781737327575684
1743758143.692,4.584811687469482,-3.9578700065612793,7.748236179351807
1743758143.692,4.536953926086426,-3.87172532081604,7.944454669952393
1743758143.692,4.647027492523193,-3.8765110969543457,7.858310222625732
1743758143.692,4.5991692543029785,-3.9243693351745605,7.810451984405518
1743758143.765,4.642241477966309,-3.9100117683410645,7.753022193908691
1743758143.765,4.690099716186523,-3.886082649230957,7.805665969848633
1743758143.765,4.699671268463135,-3.8621537685394287,7.757808208465576
1743758143.765,4.656599044799805,-3.991370677947998,7.7960944175720215
1743758143.838,4.637455940246582,-3.9817991256713867,7.78652286529541
1743758143.838,4.728386402130127,-3.929155111312866,7.753022193908691
1743758143.838,4.613526821136475,-3.8812968730926514,7.671663284301758
1743758143.838,4.551311016082764,-3.91479754447937,7.681234836578369
1743758143.911,4.541739463806152,-3.9674415588378906,7.6908063888549805
1743758143.911,4.699671268463135,-3.886082649230957,7.858310222625732
1743758143.911,4.857603549957275,-3.905225992202759,7.695592403411865
1743758143.911,4.843245983123779,-3.9387266635894775,7.738664627075195
1743758143.984,4.637455940246582,-3.948298454284668,7.748236179351807
1743758143.984,4.623098373413086,-3.9674415588378906,7.729093074798584
1743758143.984,4.594383716583252,-3.948298454284668,7.753022193908691
1743758143.984,4.613526821136475,-3.900440216064453,7.867881774902344
1743758144.057,4.728386402130127,-3.9817991256713867,7.733879089355469
1743758144.057,4.785816192626953,-3.9817991256713867,7.733879089355469
1743758144.057,4.757101058959961,-3.91479754447937,7.719521522521973
1743758144.057,4.7044572830200195,-3.8525819778442383,7.920525550842285
1743758144.13,4.613526821136475,-3.900440216064453,7.791308879852295
1743758144.13,4.580026149749756,-3.9674415588378906,7.686020851135254
1743758144.13,4.627884387969971,-4.010513782501221,7.748236179351807
1743758144.13,4.613526821136475,-3.962655782699585,7.820023536682129
1743758144.203,4.685314178466797,-3.9817991256713867,7.705163955688477
1743758144.203,4.723600387573242,-3.8812968730926514,7.753022193908691
1743758144.203,4.6613850593566895,-3.9387266635894775,7.753022193908691
1743758144.203,4.714028835296631,-3.9100117683410645,7.705163955688477
1743758144.276,4.714028835296631,-3.919583559036255,7.714735507965088
1743758144.276,4.6757426261901855,-3.843010425567627,7.7673797607421875
1743758144.276,4.594383716583252,-3.943512439727783,7.776951313018799
1743758144.276,4.60874080657959,-3.886082649230957,7.724307537078857
1743758144.349,4.580026149749756,-3.977013349533081,7.6908063888549805
1743758144.349,4.613526821136475,-3.962655782699585,7.6620917320251465
1743758144.349,4.7044572830200195,-3.9865849018096924,7.686020851135254
1743758144.349,4.718814849853516,-3.9530842304229736,7.695592403411865
1743758144.422,4.714028835296631,-3.9961564540863037,7.70037841796875
1743758144.422,4.575240135192871,-3.977013349533081,7.686020851135254
1743758144.422,4.651813507080078,-3.9674415588378906,7.78652286529541
1743758144.422,4.613526821136475,-4.048800468444824,7.619019508361816
1743758144.495,4.551311016082764,-3.9961564540863037,7.585518836975098
1743758144.495,4.503453254699707,-3.9961564540863037,7.733879089355469
1743758144.495,4.5704545974731445,-3.929155111312866,7.776951313018799
1743758144.495,4.627884387969971,-3.9865849018096924,7.695592403411865
1743758144.568,4.541739463806152,-4.005728244781494,7.705163955688477
1743758144.568,4.460380554199219,-3.943512439727783,7.695592403411865
1743758144.568,4.718814849853516,-3.9817991256713867,7.729093074798584
1743758144.568,4.804959297180176,-3.9865849018096924,7.757808208465576
1743758144.641,4.6613850593566895,-3.9578700065612793,7.824809551239014
1743758144.641,4.656599044799805,-3.8669395446777344,7.887024879455566
1743758144.641,4.56566858291626,-3.9530842304229736,7.724307537078857
1743758144.641,4.532167911529541,-3.962655782699585,7.652520179748535
1743758144.714,4.4938812255859375,-3.9674415588378906,7.60466194152832
1743758144.714,4.441237449645996,-3.9865849018096924,7.64773416519165
1743758144.714,4.556097030639648,-3.9817991256713867,7.733879089355469
1743758144.714,4.685314178466797,-3.962655782699585,7.800880432128906
1743758144.787,4.804959297180176,-3.9961564540863037,7.757808208465576
1743758144.787,4.718814849853516,-3.962655782699585,7.805665969848633
1743758144.787,4.560883045196533,-3.9817991256713867,7.810451984405518
1743758144.787,4.718814849853516,-4.010513782501221,7.74345064163208
1743758144.86,4.728386402130127,-4.0152997970581055,7.70037841796875
1743758144.86,4.699671268463135,-4.053586483001709,7.757808208465576
1743758144.86,4.52259635925293,-4.02008581161499,7.824809551239014
1743758144.86,4.556097030639648,-3.9961564540863037,7.863095760345459
1743758144.933,4.651813507080078,-3.886082649230957,7.7673797607421875
1743758144.933,4.623098373413086,-3.9578700065612793,7.633376598358154
1743758144.933,4.508238792419434,-3.962655782699585,7.738664627075195
1743758144.933,4.541739463806152,-3.919583559036255,7.729093074798584
1743758145.006,4.589597702026367,-3.9865849018096924,7.709949970245361
1743758145.006,4.709243297576904,-4.005728244781494,7.733879089355469
1743758145.006,4.642241477966309,-3.9817991256713867,7.714735507965088
1743758145.006,4.584811687469482,-3.9722273349761963,7.7673797607421875
1743758145.079,4.60874080657959,-3.905225992202759,7.78652286529541
1743758145.079,4.6613850593566895,-3.919583559036255,7.729093074798584
1743758145.079,4.560883045196533,-3.9578700065612793,7.64773416519165
1743758145.079,4.484309673309326,-4.024871349334717,7.5568037033081055
1743758145.152,4.446023464202881,-4.029657363891602,7.590304374694824
1743758145.152,4.60874080657959,-4.010513782501221,7.781737327575684
1743758145.152,4.6757426261901855,-3.948298454284668,7.628591060638428
1743758145.152,4.603955268859863,-3.977013349533081,7.70037841796875
1743758145.225,4.527381896972656,-3.9674415588378906,7.82959508895874
1743758145.225,4.513024806976318,-4.087087154388428,7.762593746185303
1743758145.225,4.728386402130127,-4.20194673538208,7.64773416519165
1743758145.225,4.867175102233887,-4.230661392211914,7.4515156745910645
1743758145.298,4.886318206787109,-4.20194673538208,7.413229465484619
1743758145.298,4.828888416290283,-4.235447406768799,7.461087226867676
1743758145.298,4.709243297576904,-4.230661392211914,7.537660598754883
1743758145.298,4.613526821136475,-4.134945392608643,7.772165298461914
1743758145.371,4.60874080657959,-4.182803153991699,7.724307537078857
1743758145.371,4.680528163909912,-4.197160720825195,7.714735507965088
1743758145.371,4.824102878570557,-4.125373363494873,7.733879089355469
1743758145.371,4.800173759460449,-4.10623025894165,7.800880432128906
1743758145.444,4.737957954406738,-4.125373363494873,7.863095760345459
1743758145.444,4.699671268463135,-3.9961564540863037,7.733879089355469
1743758145.444,4.74752950668335,-4.0440144538879395,7.580732822418213
1743758145.444,4.5704545974731445,-3.977013349533081,7.494588375091553
1743758145.517,4.455595016479492,-4.005728244781494,7.537660598754883
1743758145.517,4.422094345092773,-4.010513782501221,7.5568037033081055
1743758145.517,4.613526821136475,-4.10623025894165,7.657305717468262
1743758145.517,4.862389087677002,-4.077515602111816,7.714735507965088
1743758145.59,4.790602207183838,-4.034442901611328,7.595090389251709
1743758145.59,4.666170597076416,-4.139730930328369,7.609447956085205
1743758145.59,4.546525478363037,-4.06315803527832,7.676449298858643
1743758145.59,4.536953926086426,-4.0583720207214355,7.671663284301758
1743758145.663,4.60874080657959,-4.0440144538879395,7.748236179351807
1743758145.663,4.742743968963623,-4.029657363891602,7.719521522521973
1743758145.663,4.733172416687012,-4.082301139831543,7.5998759269714355
1743758145.663,4.589597702026367,-4.115801811218262,7.580732822418213
1743758145.736,4.4651665687561035,-3.9865849018096924,7.729093074798584
1743758145.736,4.474738121032715,-4.0440144538879395,7.642948627471924
1743758145.736,4.642241477966309,-4.072729587554932,7.719521522521973
1743758145.736,4.690099716186523,-4.06315803527832,7.671663284301758
1743758145.809,4.742743968963623,-4.10623025894165,7.595090389251709
1743758145.809,4.800173759460449,-4.077515602111816,7.619019508361816
1743758145.809,4.714028835296631,-3.943512439727783,7.4515156745910645
1743758145.809,4.3598785400390625,-4.240232944488525,7.26486873626709
1743758145.882,4.302448749542236,-4.34073543548584,7.365371227264404
1743758145.882,4.312020301818848,-4.393379211425781,7.5998759269714355
1743758145.882,4.680528163909912,-4.38380765914917,7.748236179351807
1743758145.882,4.929390907287598,-4.292877197265625,7.887024879455566
1743758145.955,4.843245983123779,-4.144516944885254,8.049742698669434
1743758145.955,4.962891578674316,-4.20194673538208,8.22203254699707
1743758145.955,5.010749340057373,-4.221089839935303,8.05452823638916
1743758145.955,5.092108249664307,-4.278519630432129,7.7673797607421875
1743758146.028,5.077751159667969,-4.369450092315674,7.4515156745910645
1743758146.028,4.919818878173828,-4.326377868652344,7.236154079437256
1743758146.028,4.4795241355896,-4.297662734985352,7.3318705558776855
1743758146.028,4.206732273101807,-4.297662734985352,7.513731479644775
1743758146.101,4.197160720825195,-4.312020301818848,7.394085884094238
1743758146.101,4.345520973205566,-4.38380765914917,7.3605852127075195
1743758146.101,4.474738121032715,-4.388593673706055,7.40365743637085
1743758146.101,4.74752950668335,-4.417308330535889,7.384514331817627
1743758146.174,4.924604892730713,-4.192375183105469,7.413229465484619
1743758146.174,4.618312835693359,-4.259376525878906,7.279226303100586
1743758146.174,4.402950763702393,-4.417308330535889,7.092579364776611
1743758146.174,4.398165225982666,-4.484309673309326,7.044721603393555
1743758146.247,4.618312835693359,-4.431665897369385,7.236154079437256
1743758146.247,4.824102878570557,-4.412522315979004,7.341442108154297
1743758146.247,4.771458625793457,-4.398165225982666,7.537660598754883
1743758146.247,4.551311016082764,-4.28809118270874,7.853524208068848
1743758146.32,4.685314178466797,-4.297662734985352,8.035385131835938
1743758146.32,4.929390907287598,-4.446023464202881,7.82959508895874
1743758146.32,5.125608921051025,-4.4795241355896,7.6908063888549805
1743758146.32,4.9437479972839355,-4.503453254699707,7.427586555480957
1743758146.393,4.575240135192871,-4.417308330535889,7.336656093597412
1743758146.393,4.278519630432129,-4.278519630432129,7.676449298858643
1743758146.393,4.115801811218262,-4.206732273101807,7.891810894012451
1743758146.393,4.211518287658691,-4.192375183105469,7.858310222625732
1743758146.466,4.326377868652344,-4.077515602111816,7.858310222625732
1743758146.466,4.441237449645996,-4.048800468444824,7.958812236785889
1743758146.466,4.594383716583252,-4.10623025894165,7.82959508895874
1743758146.466,4.4938812255859375,-4.216303825378418,7.676449298858643
1743758146.539,4.517810344696045,-4.2258758544921875,7.575946807861328
1743758146.539,4.680528163909912,-4.307234764099121,7.513731479644775
1743758146.539,4.867175102233887,-4.441237449645996,7.355799674987793
1743758146.539,4.781030178070068,-4.412522315979004,7.288797855377197
1743758146.612,4.580026149749756,-4.4268798828125,7.394085884094238
1743758146.612,4.498667240142822,-4.388593673706055,7.56158971786499
1743758146.612,4.4938812255859375,-4.364664554595947,7.432372570037842
1743758146.612,4.560883045196533,-4.388593673706055,7.413229465484619
1743758146.685,4.503453254699707,-4.374236106872559,7.494588375091553
1743758146.685,4.34073543548584,-4.321591854095459,7.580732822418213
1743758146.685,4.292877197265625,-4.326377868652344,7.494588375091553
1743758146.685,4.297662734985352,-4.38380765914917,7.4658732414245605
1743758146.758,4.326377868652344,-4.402950763702393,7.552018165588379
1743758146.758,4.4268798828125,-4.369450092315674,7.638162612915039
1743758146.758,4.637455940246582,-4.3598785400390625,7.781737327575684
1743758146.758,4.580026149749756,-4.312020301818848,7.681234836578369
1743758146.831,4.498667240142822,-4.3311638832092285,7.6620917320251465
1743758146.831,4.379021644592285,-4.278519630432129,7.585518836975098
1743758146.831,4.24501895904541,-4.369450092315674,7.532874584197998
1743758146.831,4.264162063598633,-4.455595016479492,7.456301689147949
1743758146.904,4.455595016479492,-4.398165225982666,7.504159927368164
1743758146.904,4.580026149749756,-4.460380554199219,7.40365743637085
1743758146.904,4.6613850593566895,-4.484309673309326,7.370156764984131
1743758146.904,4.694885730743408,-4.398165225982666,7.413229465484619
1743758146.977,4.6613850593566895,-4.268948078155518,7.623805046081543
1743758146.977,4.7044572830200195,-4.2258758544921875,7.5998759269714355
1743758146.977,4.670956611633301,-4.2258758544921875,7.614233493804932
1743758146.977,4.6757426261901855,-4.158874034881592,7.652520179748535
1743758147.05,4.5704545974731445,-4.158874034881592,7.676449298858643
1743758147.05,4.603955268859863,-4.130159378051758,7.666877746582031
1743758147.05,4.532167911529541,-4.034442901611328,7.585518836975098
1743758147.05,4.460380554199219,-4.010513782501221,7.681234836578369
1743758147.123,4.52259635925293,-4.0440144538879395,7.652520179748535
1743758147.123,4.52259635925293,-4.0440144538879395,7.695592403411865
1743758147.123,4.623098373413086,-4.144516944885254,7.6908063888549805
1743758147.123,4.718814849853516,-4.130159378051758,7.676449298858643
1743758147.196,4.776244640350342,-4.163660049438477,7.666877746582031
1743758147.196,4.833674430847168,-4.139730930328369,7.7960944175720215
1743758147.196,4.843245983123779,-4.20194673538208,7.705163955688477
1743758147.196,4.761887073516846,-4.235447406768799,7.671663284301758
1743758147.269,4.690099716186523,-4.173231601715088,7.753022193908691
1743758147.269,4.627884387969971,-4.144516944885254,7.800880432128906
1743758147.269,4.752315521240234,-4.173231601715088,7.863095760345459
1743758147.269,4.737957954406738,-4.0583720207214355,7.920525550842285
1743758147.342,4.6613850593566895,-4.024871349334717,7.858310222625732
1743758147.342,4.388593673706055,-4.024871349334717,7.671663284301758
1743758147.342,4.364664554595947,-4.024871349334717,7.628591060638428
1743758147.342,4.498667240142822,-4.144516944885254,7.437158584594727
1743758147.415,4.5704545974731445,-4.20194673538208,7.3175129890441895
1743758147.415,4.52259635925293,-4.393379211425781,7.4228010177612305
1743758147.415,4.589597702026367,-4.441237449645996,7.427586555480957
1743758147.415,4.891104221343994,-4.436451435089111,7.4228010177612305
1743758147.488,4.934176445007324,-4.4795241355896,7.327084541320801
1743758147.488,4.723600387573242,-4.489095687866211,7.351013660430908
1743758147.488,4.603955268859863,-4.508238792419434,7.365371227264404
1743758147.488,4.785816192626953,-4.4651665687561035,7.461087226867676
1743758147.561,4.9006757736206055,-4.52259635925293,7.3797287940979
1743758147.561,4.852817535400391,-4.441237449645996,7.470659255981445
1743758147.561,4.876746654510498,-4.379021644592285,7.552018165588379
1743758147.561,4.819316864013672,-4.441237449645996,7.4658732414245605
1743758147.634,4.666170597076416,-4.441237449645996,7.336656093597412
1743758147.634,4.503453254699707,-4.3598785400390625,7.4228010177612305
1743758147.634,4.489095687866211,-4.379021644592285,7.40365743637085
1743758147.634,4.651813507080078,-4.28809118270874,7.351013660430908
1743758147.707,4.670956611633301,-4.302448749542236,7.322298526763916
1743758147.707,4.594383716583252,-4.268948078155518,7.418015003204346
1743758147.707,4.699671268463135,-4.283305644989014,7.537660598754883
1743758147.707,4.828888416290283,-4.307234764099121,7.542446136474609
1743758147.78,4.919818878173828,-4.302448749542236,7.494588375091553
1743758147.78,4.915033340454102,-4.292877197265625,7.504159927368164
1743758147.78,4.814530849456787,-4.302448749542236,7.398871898651123
1743758147.78,4.752315521240234,-4.278519630432129,7.3175129890441895
1743758147.853,4.848031997680664,-4.283305644989014,7.427586555480957
1743758147.853,4.962891578674316,-4.264162063598633,7.384514331817627
1743758147.853,4.895889759063721,-4.206732273101807,7.470659255981445
1743758147.853,4.723600387573242,-4.206732273101807,7.475444793701172
1743758147.926,4.757101058959961,-4.187589168548584,7.60466194152832
1743758147.926,4.9006757736206055,-4.216303825378418,7.571161270141602
1743758147.926,5.001177787780762,-4.206732273101807,7.532874584197998
1743758147.926,4.962891578674316,-4.20194673538208,7.485016345977783
1743758147.999,4.848031997680664,-4.197160720825195,7.480230808258057
1743758147.999,4.848031997680664,-4.197160720825195,7.513731479644775
1743758147.999,4.824102878570557,-4.2258758544921875,7.441944122314453
1743758147.999,4.919818878173828,-4.24501895904541,7.532874584197998
1743758148.072,5.077751159667969,-4.211518287658691,7.638162612915039
1743758148.072,5.116037368774414,-4.168446063995361,7.5568037033081055
1743758148.072,4.938962459564209,-4.182803153991699,7.461087226867676
1743758148.072,4.757101058959961,-4.1205878257751465,7.441944122314453
1743758148.145,4.742743968963623,-4.158874034881592,7.355799674987793
1743758148.145,4.761887073516846,-4.192375183105469,7.355799674987793
1743758148.145,4.723600387573242,-4.211518287658691,7.441944122314453
1743758148.145,4.843245983123779,-4.168446063995361,7.4515156745910645
1743758148.218,4.871960639953613,-4.187589168548584,7.494588375091553
1743758148.218,4.9437479972839355,-4.168446063995361,7.494588375091553
1743758148.218,4.867175102233887,-4.20194673538208,7.489802360534668
1743758148.218,4.895889759063721,-4.091872692108154,7.532874584197998
1743758148.291,4.876746654510498,-4.163660049438477,7.370156764984131
1743758148.291,4.895889759063721,-4.178017616271973,7.217010974884033
1743758148.291,4.915033340454102,-4.1493024826049805,7.3175129890441895
1743758148.291,4.876746654510498,-4.125373363494873,7.413229465484619
1743758148.364,4.871960639953613,-4.163660049438477,7.389300346374512
1743758148.364,4.804959297180176,-4.249804973602295,7.312726974487305
1743758148.364,4.857603549957275,-4.20194673538208,7.394085884094238
1743758148.364,4.938962459564209,-4.173231601715088,7.504159927368164
1743758148.437,5.001177787780762,-4.2258758544921875,7.489802360534668
1743758148.437,5.082536697387695,-4.192375183105469,7.623805046081543
1743758148.437,5.010749340057373,-4.168446063995361,7.753022193908691
1743758148.437,5.125608921051025,-4.067943572998047,7.88223934173584
1743758148.51,5.125608921051025,-4.134945392608643,7.848738670349121
1743758148.51,4.967677116394043,-4.163660049438477,7.657305717468262
1743758148.51,4.90546178817749,-4.096658706665039,7.60466194152832
1743758148.51,4.891104221343994,-4.216303825378418,7.614233493804932
1743758148.583,5.010749340057373,-4.178017616271973,7.671663284301758
1743758148.583,5.001177787780762,-4.206732273101807,7.5998759269714355
1743758148.583,4.895889759063721,-4.20194673538208,7.470659255981445
1743758148.583,4.800173759460449,-4.187589168548584,7.461087226867676
1743758148.656,4.867175102233887,-4.115801811218262,7.552018165588379
1743758148.656,4.891104221343994,-4.130159378051758,7.437158584594727
1743758148.656,4.776244640350342,-4.163660049438477,7.418015003204346
1743758148.656,4.685314178466797,-4.144516944885254,7.408443450927734
1743758148.729,4.819316864013672,-4.211518287658691,7.418015003204346
1743758148.729,4.857603549957275,-4.130159378051758,7.432372570037842
1743758148.729,4.848031997680664,-4.139730930328369,7.327084541320801
1743758148.729,4.632669925689697,-4.144516944885254,7.374942779541016
1743758148.802,4.517810344696045,-4.158874034881592,7.394085884094238
1743758148.802,4.651813507080078,-4.24501895904541,7.341442108154297
1743758148.802,4.737957954406738,-4.187589168548584,7.355799674987793
1743758148.802,4.733172416687012,-4.230661392211914,7.523303031921387
1743758148.875,4.699671268463135,-4.2545905113220215,7.4658732414245605
1743758148.875,4.680528163909912,-4.278519630432129,7.413229465484619
1743758148.875,4.714028835296631,-4.302448749542236,7.504159927368164
1743758148.875,4.718814849853516,-4.302448749542236,7.590304374694824
1743758148.948,4.603955268859863,-4.34073543548584,7.542446136474609
1743758148.948,4.670956611633301,-4.312020301818848,7.614233493804932
1743758148.948,4.474738121032715,-4.316806316375732,7.279226303100586
1743758148.948,4.350306987762451,-4.278519630432129,7.341442108154297
1743758149.021,4.46995210647583,-4.154088497161865,7.877453327178955
1743758149.021,4.824102878570557,-3.977013349533081,7.805665969848633
1743758149.021,5.273969650268555,-4.02008581161499,7.585518836975098
1743758149.021,5.0059638023376465,-4.134945392608643,7.671663284301758
1743758149.094,4.742743968963623,-4.034442901611328,7.82959508895874
1743758149.094,4.5704545974731445,-3.9530842304229736,7.887024879455566
1743758149.094,4.584811687469482,-4.091872692108154,7.642948627471924
1743758149.094,4.852817535400391,-4.168446063995361,6.920289993286133
1743758149.167,4.7953877449035645,-4.154088497161865,7.5280890464782715
1743758149.167,4.666170597076416,-4.111016273498535,7.389300346374512
1743758149.167,4.742743968963623,-4.292877197265625,7.130866050720215
1743758149.167,5.403186321258545,-3.766437292098999,7.954026699066162
1743758149.24,5.149538040161133,-4.130159378051758,7.6620917320251465
1743758149.24,5.072965145111084,-4.053586483001709,7.537660598754883
1743758149.24,4.977248668670654,-4.158874034881592,7.542446136474609
1743758149.24,4.733172416687012,-4.130159378051758,7.384514331817627
1743758149.313,4.513024806976318,-4.2258758544921875,7.202653408050537
1743758149.313,4.733172416687012,-4.130159378051758,7.5280890464782715
1743758149.313,4.699671268463135,-4.321591854095459,7.4228010177612305
1743758149.313,4.962891578674316,-4.178017616271973,7.413229465484619
1743758149.386,4.876746654510498,-4.249804973602295,7.523303031921387
1743758149.386,4.785816192626953,-4.206732273101807,7.580732822418213
1743758149.386,4.852817535400391,-4.197160720825195,7.523303031921387
1743758149.386,4.919818878173828,-4.20194673538208,7.427586555480957
1743758149.459,4.8097453117370605,-4.326377868652344,7.303155422210693
1743758149.459,4.733172416687012,-4.268948078155518,7.4515156745910645
1743758149.459,4.828888416290283,-4.326377868652344,7.499373912811279
1743758149.459,5.010749340057373,-4.297662734985352,7.461087226867676
1743758149.532,5.015535354614258,-4.355092525482178,7.4658732414245605
1743758149.532,4.867175102233887,-4.259376525878906,7.56158971786499
1743758149.532,4.742743968963623,-4.163660049438477,7.494588375091553
1743758149.532,4.867175102233887,-4.178017616271973,7.336656093597412
1743758149.605,4.910247325897217,-4.163660049438477,7.446730136871338
1743758149.605,4.728386402130127,-4.087087154388428,7.336656093597412
1743758149.605,4.489095687866211,-4.1205878257751465,7.336656093597412
1743758149.605,4.632669925689697,-4.1493024826049805,7.236154079437256
1743758149.678,4.603955268859863,-4.158874034881592,7.154795169830322
1743758149.678,4.56566858291626,-4.211518287658691,7.1835103034973145
1743758149.678,4.690099716186523,-4.273733615875244,7.207438945770264
1743758149.678,5.001177787780762,-4.307234764099121,7.250511646270752
1743758149.751,5.2165398597717285,-4.230661392211914,7.499373912811279
1743758149.751,5.063393592834473,-4.211518287658691,7.571161270141602
1743758149.751,5.0059638023376465,-4.1493024826049805,7.623805046081543
1743758149.751,5.163895606994629,-4.144516944885254,7.623805046081543
1743758149.824,5.049036026000977,-4.206732273101807,7.623805046081543
1743758149.824,5.053822040557861,-4.115801811218262,7.729093074798584
1743758149.824,5.015535354614258,-4.101444244384766,7.733879089355469
1743758149.824,4.962891578674316,-4.168446063995361,7.585518836975098
1743758149.897,4.967677116394043,-4.034442901611328,7.753022193908691
1743758149.897,4.881532669067383,-4.082301139831543,7.714735507965088
1743758149.897,4.9437479972839355,-4.034442901611328,7.738664627075195
1743758149.897,4.757101058959961,-4.024871349334717,7.590304374694824
1743758149.97,4.7044572830200195,-4.024871349334717,7.384514331817627
1743758149.97,4.723600387573242,-4.111016273498535,7.437158584594727
1743758149.97,4.843245983123779,-4.0152997970581055,7.351013660430908
1743758149.97,4.857603549957275,-4.087087154388428,7.260083198547363
1743758150.043,4.895889759063721,-3.9530842304229736,7.418015003204346
1743758150.043,5.039464473724365,-4.0440144538879395,7.336656093597412
1743758150.043,4.94853401184082,-3.991370677947998,7.384514331817627
1743758150.043,4.90546178817749,-3.91479754447937,7.532874584197998
1743758150.116,4.814530849456787,-3.9387266635894775,7.499373912811279
1743758150.116,4.876746654510498,-3.8477962017059326,7.571161270141602
1743758150.116,4.867175102233887,-4.005728244781494,7.398871898651123
1743758150.116,4.819316864013672,-3.8382246494293213,7.475444793701172
1743758150.189,4.871960639953613,-3.9865849018096924,7.4515156745910645
1743758150.189,4.8384599685668945,-4.0152997970581055,7.489802360534668
1743758150.189,4.958105564117432,-3.9674415588378906,7.537660598754883
1743758150.189,4.934176445007324,-4.048800468444824,7.475444793701172
1743758150.262,4.953319549560547,-3.943512439727783,7.695592403411865
1743758150.262,4.94853401184082,-4.048800468444824,7.671663284301758
1743758150.262,5.001177787780762,-4.029657363891602,7.676449298858643
1743758150.262,5.053822040557861,-3.9817991256713867,7.676449298858643
1743758150.335,4.929390907287598,-4.087087154388428,7.638162612915039
1743758150.335,4.9437479972839355,-4.005728244781494,7.657305717468262
1743758150.335,4.843245983123779,-4.072729587554932,7.571161270141602
1743758150.335,4.910247325897217,-3.929155111312866,7.6620917320251465
1743758150.408,5.068179130554199,-3.9674415588378906,7.619019508361816
1743758150.408,5.101680278778076,-3.9387266635894775,7.619019508361816
1743758150.408,5.015535354614258,-3.929155111312866,7.585518836975098
1743758150.408,4.9006757736206055,-3.91479754447937,7.619019508361816
1743758150.481,4.924604892730713,-3.843010425567627,7.547232151031494
1743758150.481,4.819316864013672,-3.905225992202759,7.5998759269714355
1743758150.481,4.867175102233887,-3.91479754447937,7.542446136474609
1743758150.481,4.666170597076416,-3.9817991256713867,7.432372570037842
1743758150.554,4.742743968963623,-3.9578700065612793,7.40365743637085
1743758150.554,4.776244640350342,-4.005728244781494,7.413229465484619
1743758150.554,4.895889759063721,-3.9817991256713867,7.413229465484619
1743758150.554,4.8097453117370605,-4.02008581161499,7.427586555480957
1743758150.627,4.924604892730713,-3.933940887451172,7.394085884094238
1743758150.627,4.862389087677002,-4.029657363891602,7.489802360534668
1743758150.627,5.0059638023376465,-4.048800468444824,7.580732822418213
1743758150.627,5.125608921051025,-4.010513782501221,7.571161270141602
1743758150.7,5.135180950164795,-4.096658706665039,7.432372570037842
1743758150.7,5.092108249664307,-4.0440144538879395,7.40365743637085
1743758150.7,5.08732271194458,-3.9817991256713867,7.60466194152832
1743758150.7,5.025106906890869,-4.0440144538879395,7.580732822418213
1743758150.773,5.039464473724365,-4.029657363891602,7.638162612915039
1743758150.773,5.049036026000977,-3.948298454284668,7.70037841796875
1743758150.773,4.910247325897217,-3.9530842304229736,7.671663284301758
1743758150.773,4.886318206787109,-4.034442901611328,7.571161270141602
1743758150.846,4.982034683227539,-3.9578700065612793,7.60466194152832
1743758150.846,4.919818878173828,-4.02008581161499,7.523303031921387
1743758150.846,4.953319549560547,-3.9817991256713867,7.566375255584717
1743758150.846,4.781030178070068,-3.929155111312866,7.508945465087891
1743758150.919,4.881532669067383,-3.9578700065612793,7.566375255584717
1743758150.919,4.996392250061035,-3.991370677947998,7.504159927368164
1743758150.919,5.063393592834473,-4.024871349334717,7.413229465484619
1743758150.919,5.015535354614258,-4.0440144538879395,7.427586555480957
1743758150.992,4.94853401184082,-4.02008581161499,7.489802360534668
1743758150.992,4.938962459564209,-4.096658706665039,7.470659255981445
1743758150.992,4.94853401184082,-4.034442901611328,7.3797287940979
1743758150.992,4.895889759063721,-4.039228916168213,7.494588375091553
1743758151.065,4.99160623550415,-3.9722273349761963,7.5568037033081055
1743758151.065,5.053822040557861,-4.02008581161499,7.494588375091553
1743758151.065,4.982034683227539,-3.9961564540863037,7.566375255584717
1743758151.065,4.915033340454102,-4.048800468444824,7.542446136474609
1743758151.138,4.862389087677002,-3.9817991256713867,7.585518836975098
1743758151.138,4.986820697784424,-3.905225992202759,7.614233493804932
1743758151.138,5.0346784591674805,-3.9865849018096924,7.609447956085205
1743758151.138,4.986820697784424,-3.9243693351745605,7.609447956085205
1743758151.211,4.843245983123779,-3.8621537685394287,7.552018165588379
1743758151.211,4.871960639953613,-3.8047239780426025,7.64773416519165
1743758151.211,4.733172416687012,-3.8621537685394287,7.609447956085205
1743758151.211,4.656599044799805,-3.933940887451172,7.513731479644775
1743758151.284,4.733172416687012,-3.8812968730926514,7.56158971786499
1743758151.284,4.761887073516846,-3.8669395446777344,7.523303031921387
1743758151.284,4.876746654510498,-3.933940887451172,7.547232151031494
1743758151.284,4.800173759460449,-3.9530842304229736,7.461087226867676
1743758151.357,4.804959297180176,-3.933940887451172,7.542446136474609
1743758151.357,4.967677116394043,-3.8956544399261475,7.575946807861328
1743758151.357,4.99160623550415,-4.000942230224609,7.580732822418213
1743758151.357,4.953319549560547,-3.943512439727783,7.628591060638428
1743758151.43,4.953319549560547,-3.87172532081604,7.681234836578369
1743758151.43,4.924604892730713,-4.010513782501221,7.441944122314453
1743758151.43,4.833674430847168,-3.919583559036255,7.566375255584717
1743758151.43,4.8384599685668945,-4.005728244781494,7.532874584197998
1743758151.503,4.800173759460449,-4.005728244781494,7.480230808258057
1743758151.503,4.967677116394043,-3.9674415588378906,7.590304374694824
1743758151.503,4.919818878173828,-4.024871349334717,7.461087226867676
1743758151.503,5.049036026000977,-3.9817991256713867,7.595090389251709
1743758151.576,4.848031997680664,-4.077515602111816,7.446730136871338
1743758151.576,4.962891578674316,-3.9578700065612793,7.571161270141602
1743758151.576,5.015535354614258,-4.039228916168213,7.585518836975098
1743758151.576,5.101680278778076,-3.991370677947998,7.5998759269714355
1743758151.649,5.1112518310546875,-4.02008581161499,7.4658732414245605
1743758151.649,5.053822040557861,-4.048800468444824,7.518517017364502
1743758151.649,4.90546178817749,-4.034442901611328,7.4515156745910645
1743758151.649,4.876746654510498,-3.948298454284668,7.532874584197998
1743758151.722,4.871960639953613,-3.91479754447937,7.461087226867676
1743758151.722,4.982034683227539,-4.02008581161499,7.3605852127075195
1743758151.722,4.9006757736206055,-4.087087154388428,7.307941436767578
1743758151.722,4.881532669067383,-3.9961564540863037,7.508945465087891
1743758151.795,4.915033340454102,-3.9817991256713867,7.504159927368164
1743758151.795,5.049036026000977,-3.9530842304229736,7.5280890464782715
1743758151.795,5.077751159667969,-3.977013349533081,7.532874584197998
1743758151.795,5.072965145111084,-4.02008581161499,7.4658732414245605
1743758151.868,5.04425048828125,-4.005728244781494,7.389300346374512
1743758151.868,5.072965145111084,-4.096658706665039,7.480230808258057
1743758151.868,5.149538040161133,-4.039228916168213,7.504159927368164
1743758151.868,5.1112518310546875,-4.072729587554932,7.542446136474609
1743758151.941,5.04425048828125,-4.053586483001709,7.4228010177612305
1743758151.941,4.986820697784424,-3.962655782699585,7.537660598754883
1743758151.941,5.058607578277588,-4.039228916168213,7.523303031921387
1743758151.941,5.04425048828125,-3.929155111312866,7.580732822418213
1743758152.014,4.958105564117432,-4.091872692108154,7.532874584197998
1743758152.014,5.068179130554199,-3.9961564540863037,7.60466194152832
1743758152.014,4.996392250061035,-4.1205878257751465,7.56158971786499
1743758152.014,5.13039493560791,-3.9865849018096924,7.657305717468262
1743758152.087,4.986820697784424,-4.02008581161499,7.485016345977783
1743758152.087,4.886318206787109,-3.977013349533081,7.642948627471924
1743758152.087,4.895889759063721,-3.9530842304229736,7.494588375091553
1743758152.087,4.99160623550415,-3.9578700065612793,7.413229465484619
1743758152.16,4.891104221343994,-4.000942230224609,7.351013660430908
1743758152.16,5.015535354614258,-3.886082649230957,7.4658732414245605
1743758152.16,4.977248668670654,-4.206732273101807,7.231368064880371
1743758152.16,5.168681621551514,-3.977013349533081,7.523303031921387
1743758152.233,4.924604892730713,-3.9961564540863037,7.355799674987793
1743758152.233,5.04425048828125,-3.943512439727783,7.461087226867676
1743758152.233,5.025106906890869,-3.991370677947998,7.446730136871338
1743758152.233,5.0346784591674805,-4.034442901611328,7.437158584594727
1743758152.306,4.972463130950928,-3.991370677947998,7.518517017364502
1743758152.306,4.919818878173828,-4.034442901611328,7.485016345977783
1743758152.306,4.94853401184082,-4.067943572998047,7.542446136474609
1743758152.306,4.967677116394043,-4.0583720207214355,7.542446136474609
1743758152.379,5.0059638023376465,-4.053586483001709,7.475444793701172
1743758152.379,4.967677116394043,-4.130159378051758,7.523303031921387
1743758152.379,4.958105564117432,-4.048800468444824,7.676449298858643
1743758152.379,4.953319549560547,-4.034442901611328,7.686020851135254
1743758152.452,4.967677116394043,-4.053586483001709,7.614233493804932
1743758152.452,4.848031997680664,-4.034442901611328,7.595090389251709
1743758152.452,4.94853401184082,-4.005728244781494,7.532874584197998
1743758152.452,4.929390907287598,-4.067943572998047,7.461087226867676
1743758152.525,4.814530849456787,-4.0440144538879395,7.307941436767578
1743758152.525,4.814530849456787,-4.0583720207214355,7.346227645874023
1743758152.525,4.776244640350342,-4.024871349334717,7.4228010177612305
1743758152.525,4.967677116394043,-3.9865849018096924,7.523303031921387
1743758152.598,4.9437479972839355,-3.9961564540863037,7.532874584197998
1743758152.598,5.020321369171143,-4.0152997970581055,7.5998759269714355
1743758152.598,4.967677116394043,-3.9961564540863037,7.5568037033081055
1743758152.598,4.99160623550415,-4.067943572998047,7.456301689147949
1743758152.671,4.953319549560547,-3.977013349533081,7.518517017364502
1743758152.671,4.848031997680664,-3.948298454284668,7.590304374694824
1743758152.671,4.843245983123779,-3.9674415588378906,7.571161270141602
1743758152.671,4.895889759063721,-3.9674415588378906,7.552018165588379
1743758152.744,4.895889759063721,-3.905225992202759,7.547232151031494
1743758152.744,4.895889759063721,-3.9865849018096924,7.666877746582031
1743758152.744,4.8384599685668945,-3.9674415588378906,7.566375255584717
1743758152.744,4.74752950668335,-3.991370677947998,7.585518836975098
1743758152.817,4.74752950668335,-3.9674415588378906,7.494588375091553
1743758152.817,4.828888416290283,-4.0152997970581055,7.542446136474609
1743758152.817,4.876746654510498,-3.9674415588378906,7.508945465087891
1743758152.817,4.958105564117432,-3.9865849018096924,7.595090389251709
1743758152.89,4.895889759063721,-3.9530842304229736,7.6620917320251465
1743758152.89,4.919818878173828,-3.933940887451172,7.642948627471924
1743758152.89,4.8384599685668945,-3.9961564540863037,7.571161270141602
1743758152.89,4.790602207183838,-3.991370677947998,7.60466194152832
1743758152.963,4.8097453117370605,-3.9817991256713867,7.609447956085205
1743758152.963,4.814530849456787,-3.962655782699585,7.5568037033081055
1743758152.963,4.828888416290283,-3.900440216064453,7.623805046081543
1743758152.963,4.804959297180176,-3.977013349533081,7.60466194152832
1743758153.036,4.886318206787109,-4.005728244781494,7.523303031921387
1743758153.036,4.915033340454102,-4.039228916168213,7.480230808258057
1743758153.036,4.814530849456787,-4.0152997970581055,7.489802360534668
1743758153.036,4.8384599685668945,-4.02008581161499,7.614233493804932
1743758153.109,4.852817535400391,-4.039228916168213,7.499373912811279
1743758153.109,4.876746654510498,-4.096658706665039,7.566375255584717
1743758153.109,4.804959297180176,-4.053586483001709,7.532874584197998
1743758153.109,4.790602207183838,-4.077515602111816,7.609447956085205
1743758153.182,4.881532669067383,-4.0583720207214355,7.60466194152832
1743758153.182,4.938962459564209,-4.048800468444824,7.566375255584717
1743758153.182,4.871960639953613,-4.0583720207214355,7.580732822418213
1743758153.182,4.74752950668335,-4.024871349334717,7.5998759269714355
1743758153.255,4.733172416687012,-4.02008581161499,7.571161270141602
1743758153.255,4.785816192626953,-3.9961564540863037,7.6620917320251465
1743758153.255,4.613526821136475,-4.039228916168213,7.456301689147949
1743758153.255,4.680528163909912,-4.010513782501221,7.5280890464782715
1743758153.328,4.718814849853516,-4.0583720207214355,7.456301689147949
1743758153.328,4.919818878173828,-4.053586483001709,7.609447956085205
1743758153.328,4.924604892730713,-4.048800468444824,7.590304374694824
1743758153.328,4.886318206787109,-4.0152997970581055,7.595090389251709
1743758153.401,4.790602207183838,-4.005728244781494,7.60466194152832
1743758153.401,4.7953877449035645,-3.9817991256713867,7.523303031921387
1743758153.401,4.7666730880737305,-4.02008581161499,7.518517017364502
1743758153.401,4.690099716186523,-3.977013349533081,7.499373912811279
1743758153.474,4.7666730880737305,-3.977013349533081,7.5280890464782715
1743758153.474,4.7666730880737305,-3.9817991256713867,7.518517017364502
1743758153.474,4.8384599685668945,-4.034442901611328,7.571161270141602
1743758153.474,4.848031997680664,-4.0152997970581055,7.575946807861328
1743758153.547,4.785816192626953,-3.948298454284668,7.729093074798584
1743758153.547,4.852817535400391,-3.9817991256713867,7.580732822418213
1743758153.547,4.852817535400391,-4.029657363891602,7.642948627471924
1743758153.547,4.824102878570557,-4.010513782501221,7.628591060638428
1743758153.62,4.824102878570557,-3.9578700065612793,7.623805046081543
1743758153.62,4.867175102233887,-3.933940887451172,7.74345064163208
1743758153.62,4.8384599685668945,-3.9530842304229736,7.657305717468262
1743758153.62,4.852817535400391,-3.9817991256713867,7.628591060638428
1743758153.693,4.752315521240234,-4.034442901611328,7.575946807861328
1743758153.693,4.761887073516846,-3.9722273349761963,7.705163955688477
1743758153.693,4.867175102233887,-4.029657363891602,7.681234836578369
1743758153.693,4.953319549560547,-4.067943572998047,7.686020851135254
1743758153.766,4.895889759063721,-3.977013349533081,7.70037841796875
1743758153.766,4.958105564117432,-3.900440216064453,7.729093074798584
1743758153.766,4.891104221343994,-3.9722273349761963,7.56158971786499
1743758153.766,4.804959297180176,-3.9530842304229736,7.504159927368164
1743758153.839,4.785816192626953,-3.9722273349761963,7.489802360534668
1743758153.839,4.737957954406738,-3.9578700065612793,7.480230808258057
1743758153.839,4.74752950668335,-3.9865849018096924,7.499373912811279
1743758153.839,4.742743968963623,-4.024871349334717,7.547232151031494
1743758153.912,4.74752950668335,-4.024871349334717,7.494588375091553
1743758153.912,4.8097453117370605,-3.9674415588378906,7.633376598358154
1743758153.912,4.848031997680664,-4.06315803527832,7.566375255584717
1743758153.912,4.977248668670654,-4.02008581161499,7.5998759269714355
1743758153.985,4.910247325897217,-3.977013349533081,7.590304374694824
1743758153.985,4.871960639953613,-3.9722273349761963,7.633376598358154
1743758153.985,4.800173759460449,-3.9578700065612793,7.485016345977783
1743758153.985,4.685314178466797,-3.9243693351745605,7.547232151031494
1743758154.058,4.7044572830200195,-3.8956544399261475,7.614233493804932
1743758154.058,4.8097453117370605,-3.8669395446777344,7.585518836975098
1743758154.058,4.924604892730713,-3.962655782699585,7.571161270141602
1743758154.058,5.025106906890869,-3.9578700065612793,7.623805046081543
1743758154.131,5.020321369171143,-3.843010425567627,7.695592403411865
1743758154.131,4.857603549957275,-3.9100117683410645,7.6908063888549805
1743758154.131,4.871960639953613,-3.890868663787842,7.681234836578369
1743758154.131,4.819316864013672,-3.900440216064453,7.695592403411865
1743758154.204,4.771458625793457,-3.8812968730926514,7.638162612915039
1743758154.204,4.824102878570557,-3.943512439727783,7.580732822418213
1743758154.204,4.895889759063721,-3.9674415588378906,7.532874584197998
1743758154.204,5.015535354614258,-3.9674415588378906,7.566375255584717
1743758154.277,4.996392250061035,-3.8477962017059326,7.6620917320251465
1743758154.277,4.915033340454102,-3.8669395446777344,7.709949970245361
1743758154.277,4.876746654510498,-3.9387266635894775,7.575946807861328
1743758154.277,4.819316864013672,-3.977013349533081,7.504159927368164
1743758154.35,4.843245983123779,-3.943512439727783,7.56158971786499
1743758154.35,5.010749340057373,-3.9387266635894775,7.532874584197998
1743758154.35,5.025106906890869,-3.91479754447937,7.437158584594727
1743758154.35,4.924604892730713,-3.9674415588378906,7.595090389251709
1743758154.423,4.871960639953613,-3.9387266635894775,7.585518836975098
1743758154.423,4.9006757736206055,-4.02008581161499,7.628591060638428
1743758154.423,4.871960639953613,-3.933940887451172,7.518517017364502
1743758154.423,4.99160623550415,-3.9578700065612793,7.542446136474609
1743758154.496,4.910247325897217,-3.9387266635894775,7.475444793701172
1743758154.496,4.857603549957275,-3.991370677947998,7.499373912811279
1743758154.496,4.94853401184082,-4.0440144538879395,7.489802360534668
1743758154.496,4.996392250061035,-4.024871349334717,7.499373912811279
1743758154.569,5.058607578277588,-4.005728244781494,7.552018165588379
1743758154.569,4.986820697784424,-4.039228916168213,7.4515156745910645
1743758154.569,4.895889759063721,-3.977013349533081,7.427586555480957
1743758154.569,4.895889759063721,-4.024871349334717,7.566375255584717
1743758154.642,4.972463130950928,-3.9387266635894775,7.590304374694824
1743758154.642,4.99160623550415,-4.02008581161499,7.575946807861328
1743758154.642,4.958105564117432,-4.024871349334717,7.489802360534668
1743758154.642,4.962891578674316,-3.977013349533081,7.619019508361816
1743758154.715,5.116037368774414,-3.9578700065612793,7.542446136474609
1743758154.715,5.197396278381348,-4.091872692108154,7.5998759269714355
1743758154.715,5.072965145111084,-3.9817991256713867,7.5998759269714355
1743758154.715,5.0059638023376465,-3.905225992202759,7.695592403411865
1743758154.788,4.982034683227539,-3.9674415588378906,7.671663284301758
1743758154.788,4.871960639953613,-4.000942230224609,7.508945465087891
1743758154.788,4.804959297180176,-4.039228916168213,7.4228010177612305
1743758154.788,4.8384599685668945,-3.9961564540863037,7.494588375091553
1743758154.861,4.962891578674316,-3.9961564540863037,7.489802360534668
1743758154.861,5.13039493560791,-3.9530842304229736,7.595090389251709
1743758154.861,5.08732271194458,-3.9865849018096924,7.56158971786499
1743758154.861,5.015535354614258,-3.9243693351745605,7.595090389251709
1743758154.934,4.871960639953613,-3.919583559036255,7.532874584197998
1743758154.934,4.867175102233887,-3.919583559036255,7.470659255981445
1743758154.934,4.94853401184082,-3.919583559036255,7.513731479644775
1743758154.934,5.0059638023376465,-3.919583559036255,7.508945465087891
1743758155.007,4.986820697784424,-3.9674415588378906,7.508945465087891
1743758155.007,4.924604892730713,-3.8382246494293213,7.480230808258057
1743758155.007,4.7953877449035645,-3.890868663787842,7.504159927368164
1743758155.007,4.785816192626953,-3.886082649230957,7.56158971786499
1743758155.08,4.876746654510498,-3.943512439727783,7.427586555480957
1743758155.08,4.953319549560547,-4.005728244781494,7.542446136474609
1743758155.08,5.039464473724365,-4.024871349334717,7.5280890464782715
1743758155.08,5.039464473724365,-4.0152997970581055,7.614233493804932
1743758155.153,5.039464473724365,-3.929155111312866,7.5280890464782715
1743758155.153,4.958105564117432,-3.9865849018096924,7.609447956085205
1743758155.153,5.0346784591674805,-3.9578700065612793,7.537660598754883
1743758155.153,4.9437479972839355,-3.962655782699585,7.642948627471924
1743758155.226,4.953319549560547,-3.9578700065612793,7.575946807861328
1743758155.226,4.919818878173828,-3.9674415588378906,7.499373912811279
1743758155.226,4.785816192626953,-3.8956544399261475,7.595090389251709
1743758155.226,4.90546178817749,-3.9578700065612793,7.475444793701172
1743758155.299,4.977248668670654,-3.943512439727783,7.446730136871338
1743758155.299,4.9437479972839355,-3.9674415588378906,7.461087226867676
1743758155.299,4.929390907287598,-3.9100117683410645,7.518517017364502
1743758155.299,4.910247325897217,-3.900440216064453,7.547232151031494
1743758155.372,4.94853401184082,-3.91479754447937,7.56158971786499
1743758155.372,4.962891578674316,-3.9817991256713867,7.595090389251709
1743758155.372,4.90546178817749,-4.029657363891602,7.513731479644775
1743758155.372,4.967677116394043,-4.02008581161499,7.537660598754883
1743758155.445,4.919818878173828,-4.039228916168213,7.437158584594727
1743758155.445,4.7666730880737305,-4.010513782501221,7.508945465087891
1743758155.445,5.04425048828125,-3.9674415588378906,7.5998759269714355
1743758155.445,4.977248668670654,-3.962655782699585,7.532874584197998
1743758155.518,5.125608921051025,-3.943512439727783,7.590304374694824
1743758155.518,5.0059638023376465,-3.962655782699585,7.575946807861328
1743758155.518,4.881532669067383,-3.8765110969543457,7.719521522521973
1743758155.518,4.824102878570557,-3.9387266635894775,7.499373912811279
1743758155.591,4.824102878570557,-4.0152997970581055,7.518517017364502
1743758155.591,4.857603549957275,-3.9722273349761963,7.508945465087891
1743758155.591,4.881532669067383,-3.9578700065612793,7.5568037033081055
1743758155.591,5.0346784591674805,-4.02008581161499,7.5998759269714355
1743758155.664,4.982034683227539,-3.9578700065612793,7.614233493804932
1743758155.664,5.0346784591674805,-3.8812968730926514,7.633376598358154
1743758155.664,4.915033340454102,-4.024871349334717,7.585518836975098
1743758155.664,4.915033340454102,-3.9674415588378906,7.614233493804932
1743758155.737,4.9006757736206055,-3.9530842304229736,7.537660598754883
1743758155.737,5.049036026000977,-3.886082649230957,7.523303031921387
1743758155.737,5.015535354614258,-3.9722273349761963,7.418015003204346
1743758155.737,4.895889759063721,-3.9530842304229736,7.4515156745910645
1743758155.81,4.895889759063721,-3.929155111312866,7.590304374694824
1743758155.81,4.929390907287598,-3.9243693351745605,7.614233493804932
1743758155.81,4.929390907287598,-3.943512439727783,7.532874584197998
1743758155.81,4.90546178817749,-4.010513782501221,7.542446136474609
1743758155.883,5.0059638023376465,-3.9722273349761963,7.590304374694824
1743758155.883,5.068179130554199,-4.02008581161499,7.470659255981445
1743758155.883,5.1112518310546875,-4.091872692108154,7.427586555480957
1743758155.883,5.039464473724365,-4.091872692108154,7.485016345977783
1743758155.956,4.871960639953613,-3.929155111312866,7.609447956085205
1743758155.956,4.9006757736206055,-3.9578700065612793,7.633376598358154
1743758155.956,5.025106906890869,-4.077515602111816,7.494588375091553
1743758155.956,4.919818878173828,-3.977013349533081,7.585518836975098
1743758156.029,4.886318206787109,-3.991370677947998,7.5568037033081055
1743758156.029,4.876746654510498,-3.9722273349761963,7.475444793701172
1743758156.029,4.924604892730713,-3.9674415588378906,7.489802360534668
1743758156.029,4.852817535400391,-3.962655782699585,7.609447956085205
1743758156.102,4.867175102233887,-3.991370677947998,7.523303031921387
1743758156.102,4.924604892730713,-3.929155111312866,7.552018165588379
1743758156.102,4.929390907287598,-3.9578700065612793,7.547232151031494
1743758156.102,4.967677116394043,-3.919583559036255,7.542446136474609
1743758156.175,4.915033340454102,-3.8765110969543457,7.614233493804932
1743758156.175,4.848031997680664,-3.9387266635894775,7.56158971786499
1743758156.175,4.828888416290283,-3.9865849018096924,7.489802360534668
1743758156.175,4.8097453117370605,-3.9722273349761963,7.446730136871338
1743758156.248,4.895889759063721,-3.9674415588378906,7.5280890464782715
1743758156.248,4.962891578674316,-3.9961564540863037,7.513731479644775
1743758156.248,5.049036026000977,-4.02008581161499,7.609447956085205
1743758156.248,4.99160623550415,-3.9530842304229736,7.70037841796875
1743758156.321,4.924604892730713,-3.9243693351745605,7.729093074798584
1743758156.321,4.876746654510498,-3.919583559036255,7.571161270141602
1743758156.321,4.814530849456787,-3.9817991256713867,7.480230808258057
1743758156.321,4.776244640350342,-3.9961564540863037,7.480230808258057
1743758156.394,4.833674430847168,-3.9817991256713867,7.441944122314453
1743758156.394,4.9006757736206055,-3.9578700065612793,7.532874584197998
1743758156.394,5.015535354614258,-3.9387266635894775,7.5998759269714355
1743758156.394,4.972463130950928,-3.9243693351745605,7.5568037033081055
1743758156.467,4.843245983123779,-3.962655782699585,7.60466194152832
1743758156.467,4.843245983123779,-3.962655782699585,7.623805046081543
1743758156.467,5.020321369171143,-4.024871349334717,7.60466194152832
1743758156.467,5.015535354614258,-4.0152997970581055,7.523303031921387
1743758156.54,5.015535354614258,-4.0440144538879395,7.470659255981445
1743758156.54,4.99160623550415,-3.977013349533081,7.537660598754883
1743758156.54,4.977248668670654,-3.9817991256713867,7.523303031921387
1743758156.54,4.958105564117432,-3.9865849018096924,7.485016345977783
1743758156.613,4.910247325897217,-4.0152997970581055,7.504159927368164
1743758156.613,4.924604892730713,-4.134945392608643,7.384514331817627
1743758156.613,4.886318206787109,-4.154088497161865,7.489802360534668
1743758156.613,4.953319549560547,-4.115801811218262,7.489802360534668
1743758156.686,4.953319549560547,-4.1493024826049805,7.5280890464782715
1743758156.686,5.1112518310546875,-4.130159378051758,7.532874584197998
1743758156.686,5.101680278778076,-4.096658706665039,7.523303031921387
1743758156.686,4.9006757736206055,-4.0440144538879395,7.681234836578369
1743758156.759,4.742743968963623,-4.048800468444824,7.652520179748535
1743758156.759,4.910247325897217,-4.06315803527832,7.575946807861328
1743758156.759,4.737957954406738,-4.0583720207214355,7.5568037033081055
1743758156.759,4.90546178817749,-4.039228916168213,7.547232151031494
1743758156.832,5.063393592834473,-4.053586483001709,7.384514331817627
1743758156.832,5.049036026000977,-4.0583720207214355,7.437158584594727
1743758156.832,5.072965145111084,-3.991370677947998,7.552018165588379
1743758156.832,4.972463130950928,-3.977013349533081,7.470659255981445
1743758156.905,4.9006757736206055,-3.9961564540863037,7.4658732414245605
1743758156.905,4.824102878570557,-3.91479754447937,7.566375255584717
1743758156.905,4.862389087677002,-4.0152997970581055,7.595090389251709
1743758156.905,4.919818878173828,-3.9674415588378906,7.532874584197998
1743758156.978,4.910247325897217,-3.9100117683410645,7.638162612915039
1743758156.978,4.9437479972839355,-3.943512439727783,7.628591060638428
1743758156.978,4.986820697784424,-3.929155111312866,7.523303031921387
1743758156.978,4.781030178070068,-3.91479754447937,7.56158971786499
1743758157.051,4.60874080657959,-3.7903664112091064,7.642948627471924
1743758157.051,4.60874080657959,-3.9387266635894775,7.666877746582031
1743758157.051,4.891104221343994,-3.9387266635894775,7.566375255584717
1743758157.051,4.94853401184082,-3.929155111312866,7.6620917320251465
1743758157.124,4.871960639953613,-3.929155111312866,7.642948627471924
1743758157.124,4.8097453117370605,-3.9865849018096924,7.418015003204346
1743758157.124,4.757101058959961,-3.9387266635894775,7.590304374694824
1743758157.124,4.867175102233887,-3.9961564540863037,7.470659255981445
1743758157.197,4.986820697784424,-3.9674415588378906,7.571161270141602
1743758157.197,4.895889759063721,-3.933940887451172,7.800880432128906
1743758157.197,4.886318206787109,-3.8765110969543457,7.724307537078857
1743758157.197,4.958105564117432,-3.905225992202759,7.705163955688477
1743758157.27,4.843245983123779,-3.905225992202759,7.681234836578369
1743758157.27,4.742743968963623,-3.8765110969543457,7.652520179748535
1743758157.27,4.694885730743408,-3.8525819778442383,7.652520179748535
1743758157.27,4.7953877449035645,-3.886082649230957,7.5998759269714355
1743758157.343,4.8097453117370605,-3.91479754447937,7.5568037033081055
1743758157.343,4.694885730743408,-3.8669395446777344,7.614233493804932
1743758157.343,4.709243297576904,-3.8334388732910156,7.642948627471924
1743758157.343,4.781030178070068,-3.91479754447937,7.64773416519165
1743758157.416,4.771458625793457,-3.9722273349761963,7.595090389251709
1743758157.416,4.752315521240234,-4.000942230224609,7.523303031921387
1743758157.416,4.814530849456787,-4.0440144538879395,7.5998759269714355
1743758157.416,5.020321369171143,-3.943512439727783,7.671663284301758
1743758157.489,5.025106906890869,-3.900440216064453,7.719521522521973
1743758157.489,4.90546178817749,-3.886082649230957,7.781737327575684
1743758157.489,4.709243297576904,-3.8525819778442383,7.719521522521973
1743758157.489,4.6757426261901855,-3.9817991256713867,7.652520179748535
1743758157.562,4.848031997680664,-3.8525819778442383,7.5568037033081055
1743758157.562,4.843245983123779,-3.91479754447937,7.5998759269714355
1743758157.562,4.824102878570557,-3.933940887451172,7.729093074798584
1743758157.562,4.575240135192871,-3.929155111312866,7.676449298858643
1743758157.635,4.388593673706055,-4.005728244781494,7.628591060638428
1743758157.635,4.580026149749756,-3.675506830215454,7.705163955688477
1743758157.635,4.259376525878906,-4.039228916168213,7.461087226867676
1743758157.635,4.871960639953613,-3.6707210540771484,7.250511646270752
1743758157.708,4.986820697784424,-3.345285415649414,7.461087226867676
1743758157.708,5.541975021362305,-3.4601449966430664,7.628591060638428
1743758157.708,5.17346715927124,-3.6994359493255615,7.987527370452881
1743758157.708,4.450809001922607,-3.2830698490142822,7.3797287940979
1743758157.781,4.268948078155518,-3.2974274158477783,8.533110618591309
1743758157.781,3.766437292098999,-3.4745025634765625,8.107172966003418
1743758157.781,3.780794858932495,-3.8669395446777344,7.571161270141602
1743758157.781,4.450809001922607,-3.823867082595825,7.571161270141602
1743758157.854,4.321591854095459,-3.2926416397094727,6.99686336517334
1743758157.854,3.6659352779388428,-3.316570520401001,6.972934246063232
1743758157.854,3.2352118492126465,-3.2304258346557617,7.614233493804932
1743758157.854,3.034207344055176,-2.373764753341675,7.657305717468262
1743758157.927,3.6802926063537598,-2.388122320175171,9.863567352294922
1743758157.927,5.963127136230469,-1.6080342531204224,8.676684379577637
1743758157.927,7.853524208068848,-2.0626866817474365,7.70037841796875
1743758157.927,8.423036575317383,-2.718343496322632,7.781737327575684
1743758158,9.820494651794434,-2.4072654247283936,8.231603622436523
1743758158,10.81594467163086,-3.0677082538604736,8.375178337097168
1743758158,10.504866600036621,-2.2876200675964355,8.24596118927002
1743758158,6.929862022399902,-1.7372512817382812,8.753257751464844
1743758158.073,3.043779134750366,-1.0337363481521606,9.724778175354004
1743758158.073,-0.09571632742881775,-1.0624512434005737,9.887495994567871
1743758158.073,-1.5506044626235962,-2.507767677307129,9.638633728027344
1743758158.073,-0.6748000979423523,-2.909776210784912,8.619255065917969
1743758158.146,-0.5599405169487,-3.7425081729888916,7.949240684509277
1743758158.146,-0.363722026348114,-3.5654330253601074,7.891810894012451
1743758158.146,-0.4115802049636841,-3.723365068435669,7.709949970245361
1743758158.146,0.6412993669509888,-3.5080032348632812,7.5998759269714355
1743758158.219,1.6750357151031494,-3.2830698490142822,7.56158971786499
1743758158.219,2.6513421535491943,-3.0820655822753906,7.910953998565674
1743758158.219,2.9049904346466064,-2.7805593013763428,8.657541275024414
1743758158.219,3.043779134750366,-2.4551236629486084,9.203125
1743758158.292,3.2926416397094727,-2.4694812297821045,9.490273475646973
1743758158.292,3.694650173187256,-2.431194543838501,9.389771461486816
1743758158.292,4.1205878257751465,-2.641770601272583,9.274911880493164
1743758158.292,4.163660049438477,-2.6369848251342773,9.36584186553955
1743758158.365,3.919583559036255,-2.4981961250305176,9.581204414367676
1743758158.365,3.211282730102539,-2.5412683486938477,9.633848190307617
1743758158.365,2.6513421535491943,-2.536482572555542,9.509416580200195
1743758158.365,2.28283429145813,-2.445552110671997,9.356270790100098
1743758158.438,2.014828681945801,-2.388122320175171,9.39934253692627
1743758158.438,1.8186101913452148,-2.5604116916656494,9.183980941772461
1743758158.438,1.8042527437210083,-2.6752712726593018,9.021263122558594
1743758158.438,2.0674726963043213,-2.579555034637451,9.160052299499512
1743758158.511,2.0961875915527344,-2.6178414821624756,9.255768775939941
1743758158.511,2.0961875915527344,-2.5747690200805664,9.155266761779785
1743758158.511,2.2254045009613037,-2.550840139389038,9.179195404052734
1743758158.511,2.2254045009613037,-2.5125534534454346,9.250982284545898
1743758158.584,2.3450498580932617,-2.5412683486938477,9.356270790100098
1743758158.584,2.4072654247283936,-2.431194543838501,9.447200775146484
1743758158.584,2.4216229915618896,-2.5316967964172363,9.542917251586914
1743758158.584,2.5460541248321533,-2.4503378868103027,9.600347518920898
1743758158.657,2.732701063156128,-2.479052782058716,9.504631042480469
1743758158.657,2.7566301822662354,-2.4551236629486084,9.341913223266602
1743758158.657,2.6800570487976074,-2.5556259155273438,9.341913223266602
1743758158.657,2.593912363052368,-2.4407663345336914,9.423272132873535
1743758158.73,2.6896286010742188,-2.5029819011688232,9.322770118713379
1743758158.73,2.7805593013763428,-2.464695453643799,9.270126342773438
1743758158.73,2.7662017345428467,-2.4407663345336914,9.294054985046387
1743758158.73,2.6034839153289795,-2.4359803199768066,9.260554313659668
1743758158.803,2.6226272583007812,-2.4216229915618896,9.083478927612305
1743758158.803,2.5747690200805664,-2.5269110202789307,8.906403541564941
1743758158.803,2.3641932010650635,-2.5891265869140625,8.901618003845215
1743758158.803,2.3785505294799805,-2.61305570602417,8.920761108398438
1743758158.876,2.5173392295837402,-2.5412683486938477,9.021263122558594
1743758158.876,2.7087719440460205,-2.5604116916656494,8.94947624206543
1743758158.876,2.6034839153289795,-2.5173392295837402,9.03562068939209
1743758158.876,2.584340810775757,-2.5460541248321533,9.021263122558594
1743758158.949,2.6178414821624756,-2.5412683486938477,9.093050956726074
1743758158.949,2.7422726154327393,-2.5269110202789307,9.126551628112793
1743758158.949,2.775773286819458,-2.5460541248321533,9.083478927612305
1743758158.949,2.909776210784912,-2.4981961250305176,9.054763793945312
1743758159.022,2.9815635681152344,-2.6513421535491943,9.136122703552246
1743758159.022,2.8571321964263916,-2.5699832439422607,9.270126342773438
1743758159.022,2.833203077316284,-2.5316967964172363,9.265339851379395
1743758159.022,2.7709875106811523,-2.579555034637451,9.274911880493164
1743758159.095,2.627413034439087,-2.6178414821624756,9.116979598999023
1743758159.095,2.804488182067871,-2.598698139190674,9.203125
1743758159.095,2.804488182067871,-2.5891265869140625,9.155266761779785
1743758159.095,2.8619179725646973,-2.6178414821624756,9.13133716583252
1743758159.168,2.833203077316284,-2.598698139190674,9.179195404052734
1743758159.168,2.747058391571045,-2.5125534534454346,9.346698760986328
1743758159.168,2.718343496322632,-2.627413034439087,9.088264465332031
1743758159.168,2.732701063156128,-2.6034839153289795,9.0978364944458
1743758159.241,2.7518444061279297,-2.61305570602417,8.935118675231934
1743758159.241,2.7374868392944336,-2.6656997203826904,8.997334480285645
1743758159.241,2.900204658508301,-2.598698139190674,9.03562068939209
1743758159.241,2.928919553756714,-2.6082699298858643,9.064335823059082
1743758159.314,2.9337053298950195,-2.550840139389038,9.069121360778809
1743758159.314,3.015064239501953,-2.5891265869140625,9.01169204711914
1743758159.314,3.0054924488067627,-2.6082699298858643,9.073907852172852
1743758159.314,2.9480626583099365,-2.5891265869140625,9.116979598999023
1743758159.387,2.8762755393981934,-2.598698139190674,9.059550285339355
1743758159.387,2.866703987121582,-2.5604116916656494,9.121766090393066
1743758159.387,2.823631525039673,-2.4838385581970215,9.150480270385742
1743758159.387,2.833203077316284,-2.5747690200805664,9.207910537719727
1743758159.46,2.7805593013763428,-2.4407663345336914,9.260554313659668
1743758159.46,2.804488182067871,-2.4981961250305176,9.236625671386719
1743758159.46,2.823631525039673,-2.4503378868103027,9.179195404052734
1743758159.46,2.866703987121582,-2.4551236629486084,9.150480270385742
1743758159.533,2.8619179725646973,-2.5556259155273438,9.164837837219238
1743758159.533,2.9145619869232178,-2.479052782058716,9.183980941772461
1743758159.533,2.943276882171631,-2.4359803199768066,9.164837837219238
1743758159.533,2.8906328678131104,-2.5173392295837402,9.188767433166504
1743758159.606,2.8858470916748047,-2.47426700592041,9.174409866333008
1743758159.606,2.8858470916748047,-2.47426700592041,9.155266761779785
1743758159.606,2.8140599727630615,-2.464695453643799,9.284482955932617
1743758159.606,2.909776210784912,-2.416837215423584,9.332341194152832
1743758159.679,2.9959208965301514,-2.4216229915618896,9.370628356933594
1743758159.679,3.0054924488067627,-2.4216229915618896,9.337127685546875
1743758159.679,2.9480626583099365,-2.5460541248321533,9.284482955932617
1743758159.679,2.809274196624756,-2.5412683486938477,9.231839179992676
1743758159.752,2.761415958404541,-2.5747690200805664,9.140909194946289
1743758159.752,2.761415958404541,-2.584340810775757,8.944690704345703
1743758159.752,2.584340810775757,-2.684842824935913,9.021263122558594
1743758159.752,2.6082699298858643,-2.670485496520996,8.94947624206543
1743758159.825,2.670485496520996,-2.6609137058258057,9.002120018005371
1743758159.825,2.8284173011779785,-2.6321988105773926,8.844188690185547
1743758159.825,2.866703987121582,-2.6082699298858643,8.944690704345703
1743758159.825,2.8284173011779785,-2.627413034439087,8.901618003845215
1743758159.898,2.804488182067871,-2.6656997203826904,8.930333137512207
1743758159.898,2.8571321964263916,-2.6226272583007812,8.987762451171875
1743758159.898,2.957634449005127,-2.732701063156128,8.963833808898926
1743758159.898,2.909776210784912,-2.6944146156311035,8.982976913452148
1743758159.971,2.866703987121582,-2.6752712726593018,9.145694732666016
1743758159.971,2.9624202251434326,-2.584340810775757,9.026049613952637
1743758159.971,2.866703987121582,-2.732701063156128,9.059550285339355
1743758159.971,2.7422726154327393,-2.718343496322632,9.102622032165527
1743758160.044,2.761415958404541,-2.7374868392944336,9.207910537719727
1743758160.044,2.7566301822662354,-2.684842824935913,9.116979598999023
1743758160.044,2.6800570487976074,-2.670485496520996,9.183980941772461
1743758160.044,2.7949166297912598,-2.670485496520996,9.073907852172852
1743758160.117,2.732701063156128,-2.6513421535491943,9.212696075439453
1743758160.117,2.809274196624756,-2.6752712726593018,9.069121360778809
1743758160.117,2.718343496322632,-2.6369848251342773,8.978191375732422
1743758160.117,2.718343496322632,-2.670485496520996,9.121766090393066
1743758160.19,2.732701063156128,-2.7231295108795166,9.04519271850586
1743758160.19,2.823631525039673,-2.699200391769409,9.026049613952637
1743758160.19,2.833203077316284,-2.6226272583007812,9.088264465332031
1743758160.19,2.7997024059295654,-2.6752712726593018,9.255768775939941
1743758160.263,2.833203077316284,-2.61305570602417,9.126551628112793
1743758160.263,2.761415958404541,-2.6944146156311035,9.140909194946289
1743758160.263,2.641770601272583,-2.6896286010742188,8.992548942565918
1743758160.263,2.627413034439087,-2.747058391571045,9.04519271850586
1743758160.336,2.627413034439087,-2.718343496322632,9.078693389892578
1743758160.336,2.5556259155273438,-2.6513421535491943,9.026049613952637
1743758160.336,2.7805593013763428,-2.6752712726593018,9.179195404052734
1743758160.336,2.833203077316284,-2.7087719440460205,9.174409866333008
1743758160.409,2.8571321964263916,-2.7087719440460205,9.222268104553223
1743758160.409,2.8906328678131104,-2.641770601272583,9.183980941772461
1743758160.409,2.7805593013763428,-2.7566301822662354,9.116979598999023
1743758160.409,2.7709875106811523,-2.7709875106811523,9.169623374938965
1743758160.482,2.6800570487976074,-2.6800570487976074,9.112194061279297
1743758160.482,2.732701063156128,-2.6609137058258057,9.150480270385742
1743758160.482,2.7231295108795166,-2.684842824935913,9.126551628112793
1743758160.482,2.6800570487976074,-2.7566301822662354,9.021263122558594
1743758160.555,2.6896286010742188,-2.7374868392944336,8.982976913452148
1743758160.555,2.670485496520996,-2.670485496520996,9.078693389892578
1743758160.555,2.6561279296875,-2.703986167907715,9.002120018005371
1743758160.555,2.6944146156311035,-2.7374868392944336,9.04519271850586
1743758160.628,2.7231295108795166,-2.7279152870178223,9.054763793945312
1743758160.628,2.790130853652954,-2.718343496322632,9.13133716583252
1743758160.628,2.8140599727630615,-2.6752712726593018,9.078693389892578
1743758160.628,2.732701063156128,-2.6465563774108887,9.179195404052734
1743758160.701,2.718343496322632,-2.6513421535491943,9.164837837219238
1743758160.701,2.6752712726593018,-2.6609137058258057,9.140909194946289
1743758160.701,2.584340810775757,-2.718343496322632,9.126551628112793
1743758160.701,2.5747690200805664,-2.713557720184326,9.169623374938965
1743758160.774,2.5699832439422607,-2.732701063156128,9.145694732666016
1743758160.774,2.6513421535491943,-2.699200391769409,9.116979598999023
1743758160.774,2.7231295108795166,-2.7709875106811523,9.116979598999023
1743758160.774,2.6800570487976074,-2.7087719440460205,9.160052299499512
1743758160.847,2.7087719440460205,-2.7566301822662354,9.10740852355957
1743758160.847,2.8427748680114746,-2.7949166297912598,9.126551628112793
1743758160.847,2.8858470916748047,-2.8571321964263916,9.169623374938965
1743758160.847,2.7853450775146484,-2.804488182067871,9.19355297088623
1743758160.92,2.837989091873169,-2.804488182067871,9.102622032165527
1743758160.92,2.852346420288086,-2.7949166297912598,9.179195404052734
1743758160.92,2.6944146156311035,-2.7997024059295654,9.19355297088623
1743758160.92,2.6178414821624756,-2.7566301822662354,9.059550285339355
1743758160.993,2.7087719440460205,-2.8619179725646973,9.064335823059082
1743758160.993,2.584340810775757,-2.7709875106811523,9.112194061279297
1743758160.993,2.684842824935913,-2.804488182067871,9.102622032165527
1743758160.993,2.6513421535491943,-2.7518444061279297,9.078693389892578
1743758161.066,2.6609137058258057,-2.818845748901367,9.160052299499512
1743758161.066,2.598698139190674,-2.747058391571045,9.112194061279297
1743758161.066,2.670485496520996,-2.7087719440460205,9.265339851379395
1743758161.066,2.6465563774108887,-2.7662017345428467,9.116979598999023
1743758161.139,2.7279152870178223,-2.7709875106811523,9.121766090393066
1743758161.139,2.5891265869140625,-2.833203077316284,9.040407180786133
1743758161.139,2.6178414821624756,-2.804488182067871,9.116979598999023
1743758161.139,2.584340810775757,-2.7279152870178223,9.112194061279297
1743758161.212,2.584340810775757,-2.761415958404541,9.136122703552246
1743758161.212,2.7949166297912598,-2.4838385581970215,9.155266761779785
1743758161.212,2.47426700592041,-2.818845748901367,9.030835151672363
1743758161.212,2.7279152870178223,-2.6944146156311035,9.073907852172852
1743758161.285,2.5747690200805664,-2.7709875106811523,9.040407180786133
1743758161.285,2.5556259155273438,-2.900204658508301,9.006906509399414
1743758161.285,2.4838385581970215,-2.8284173011779785,8.92554759979248
1743758161.285,2.507767677307129,-2.823631525039673,9.030835151672363
1743758161.358,2.5173392295837402,-2.804488182067871,8.992548942565918
1743758161.358,2.6752712726593018,-2.8619179725646973,9.13133716583252
1743758161.358,2.718343496322632,-2.823631525039673,9.198338508605957
1743758161.358,2.718343496322632,-2.7853450775146484,9.22705364227295
1743758161.431,2.761415958404541,-2.852346420288086,9.155266761779785
1743758161.431,2.6465563774108887,-2.866703987121582,9.030835151672363
1743758161.431,2.5269110202789307,-2.866703987121582,9.026049613952637
1743758161.431,2.4838385581970215,-2.790130853652954,9.150480270385742
1743758161.504,2.5891265869140625,-2.8714897632598877,9.078693389892578
1743758161.504,2.536482572555542,-2.8427748680114746,9.083478927612305
1743758161.504,2.627413034439087,-2.8475606441497803,9.112194061279297
1743758161.504,2.5604116916656494,-2.804488182067871,9.116979598999023
1743758161.577,2.6178414821624756,-2.8858470916748047,9.016477584838867
1743758161.577,2.5460541248321533,-2.8475606441497803,9.021263122558594
1743758161.577,2.584340810775757,-2.928919553756714,9.002120018005371
1743758161.577,2.536482572555542,-2.866703987121582,9.059550285339355
1743758161.65,2.5604116916656494,-2.866703987121582,9.03562068939209
1743758161.65,2.5412683486938477,-2.8571321964263916,9.102622032165527
1743758161.65,2.5173392295837402,-2.866703987121582,9.088264465332031
1743758161.65,2.507767677307129,-2.9049904346466064,9.030835151672363
1743758161.723,2.464695453643799,-2.895418882369995,8.997334480285645
1743758161.723,2.459909439086914,-2.8571321964263916,9.088264465332031
1743758161.723,2.550840139389038,-2.9049904346466064,9.059550285339355
1743758161.723,2.522125244140625,-2.8571321964263916,9.145694732666016
1743758161.796,2.5747690200805664,-2.775773286819458,9.121766090393066
1743758161.796,2.6082699298858643,-2.823631525039673,9.069121360778809
1743758161.796,2.579555034637451,-2.900204658508301,9.088264465332031
1743758161.796,2.5891265869140625,-2.837989091873169,9.145694732666016
1743758161.869,2.627413034439087,-2.837989091873169,8.982976913452148
1743758161.869,2.5460541248321533,-2.852346420288086,9.059550285339355
1743758161.869,2.5604116916656494,-2.804488182067871,9.059550285339355
1743758161.869,2.593912363052368,-2.866703987121582,9.021263122558594
1743758161.942,2.5699832439422607,-2.8571321964263916,9.030835151672363
1743758161.942,2.4838385581970215,-2.833203077316284,9.03562068939209
1743758161.942,2.6944146156311035,-2.8714897632598877,9.136122703552246
1743758161.942,2.6944146156311035,-2.833203077316284,9.064335823059082
1743758162.015,2.6561279296875,-2.833203077316284,9.13133716583252
1743758162.015,2.6082699298858643,-2.866703987121582,9.026049613952637
1743758162.015,2.536482572555542,-2.866703987121582,9.03562068939209
1743758162.015,2.565197467803955,-2.8140599727630615,9.116979598999023
1743758162.088,2.6513421535491943,-2.7853450775146484,9.241411209106445
1743758162.088,2.7422726154327393,-2.8571321964263916,9.19355297088623
1743758162.088,2.684842824935913,-2.837989091873169,9.250982284545898
1743758162.088,2.6226272583007812,-2.823631525039673,9.246196746826172
1743758162.161,2.6082699298858643,-2.8475606441497803,9.121766090393066
1743758162.161,2.6082699298858643,-2.8906328678131104,9.0978364944458
1743758162.161,2.598698139190674,-2.833203077316284,9.102622032165527
1743758162.161,2.5556259155273438,-2.809274196624756,9.212696075439453
1743758162.234,2.6944146156311035,-2.7709875106811523,9.073907852172852
1743758162.234,2.6800570487976074,-2.790130853652954,9.01169204711914
1743758162.234,2.6800570487976074,-2.7709875106811523,9.078693389892578
1743758162.234,2.5604116916656494,-2.8284173011779785,8.992548942565918
1743758162.307,2.6178414821624756,-2.823631525039673,9.069121360778809
1743758162.307,2.6226272583007812,-2.8906328678131104,9.01169204711914
1743758162.307,2.5604116916656494,-2.837989091873169,9.04519271850586
1743758162.307,2.61305570602417,-2.8284173011779785,9.083478927612305
1743758162.38,2.522125244140625,-2.8427748680114746,9.049978256225586
1743758162.38,2.5029819011688232,-2.837989091873169,9.069121360778809
1743758162.38,2.6465563774108887,-2.866703987121582,9.049978256225586
1743758162.38,2.6321988105773926,-2.8571321964263916,9.026049613952637
1743758162.453,2.670485496520996,-2.8906328678131104,9.136122703552246
1743758162.453,2.6561279296875,-2.928919553756714,8.982976913452148
1743758162.453,2.7997024059295654,-2.8619179725646973,9.073907852172852
1743758162.453,2.7949166297912598,-2.900204658508301,9.064335823059082
1743758162.526,2.713557720184326,-2.8284173011779785,9.188767433166504
1743758162.526,2.732701063156128,-2.8427748680114746,9.112194061279297
1743758162.526,2.699200391769409,-2.823631525039673,9.164837837219238
1743758162.526,2.6034839153289795,-2.8475606441497803,9.231839179992676
1743758162.599,2.6752712726593018,-2.833203077316284,9.093050956726074
1743758162.599,2.6465563774108887,-2.775773286819458,9.03562068939209
1743758162.599,2.565197467803955,-2.790130853652954,9.10740852355957
1743758162.599,2.5173392295837402,-2.7997024059295654,9.116979598999023
1743758162.672,2.5604116916656494,-2.8427748680114746,9.121766090393066
1743758162.672,2.550840139389038,-2.7518444061279297,9.19355297088623
1743758162.672,2.6513421535491943,-2.7949166297912598,9.078693389892578
1743758162.672,2.6944146156311035,-2.833203077316284,8.920761108398438
1743758162.745,2.61305570602417,-2.8858470916748047,9.026049613952637
1743758162.745,2.6178414821624756,-2.852346420288086,9.140909194946289
1743758162.745,2.732701063156128,-2.8571321964263916,9.116979598999023
1743758162.745,2.804488182067871,-2.804488182067871,9.054763793945312
1743758162.818,2.818845748901367,-2.804488182067871,9.183980941772461
1743758162.818,2.761415958404541,-2.804488182067871,9.19355297088623
1743758162.818,2.6944146156311035,-2.790130853652954,9.169623374938965
1743758162.818,2.6944146156311035,-2.804488182067871,9.093050956726074
1743758162.891,2.6561279296875,-2.833203077316284,9.026049613952637
1743758162.891,2.61305570602417,-2.718343496322632,9.078693389892578
1743758162.891,2.6465563774108887,-2.7709875106811523,9.174409866333008
1743758162.891,2.6465563774108887,-2.7422726154327393,9.198338508605957
1743758162.964,2.6561279296875,-2.761415958404541,9.112194061279297
1743758162.964,2.6369848251342773,-2.7374868392944336,9.136122703552246
1743758162.964,2.584340810775757,-2.761415958404541,8.997334480285645
1743758162.964,2.536482572555542,-2.8140599727630615,8.968619346618652
1743758163.037,2.598698139190674,-2.775773286819458,9.04519271850586
1743758163.037,2.627413034439087,-2.7662017345428467,9.04519271850586
1743758163.037,2.598698139190674,-2.775773286819458,9.049978256225586
1743758163.037,2.627413034439087,-2.823631525039673,9.179195404052734
1743758163.11,2.699200391769409,-2.7805593013763428,9.112194061279297
1743758163.11,2.7279152870178223,-2.747058391571045,9.121766090393066
1743758163.11,2.7662017345428467,-2.790130853652954,9.121766090393066
1743758163.11,2.7422726154327393,-2.7518444061279297,9.145694732666016
1743758163.183,2.6609137058258057,-2.7662017345428467,9.150480270385742
1743758163.183,2.6465563774108887,-2.7566301822662354,9.174409866333008
1743758163.183,2.6752712726593018,-2.7518444061279297,9.10740852355957
1743758163.183,2.6561279296875,-2.761415958404541,9.088264465332031
1743758163.256,2.579555034637451,-2.6896286010742188,9.207910537719727
1743758163.256,2.6034839153289795,-2.6752712726593018,9.116979598999023
1743758163.256,2.6561279296875,-2.7374868392944336,9.093050956726074
1743758163.256,2.565197467803955,-2.6752712726593018,9.10740852355957
1743758163.329,2.5699832439422607,-2.747058391571045,9.112194061279297
1743758163.329,2.5316967964172363,-2.7231295108795166,9.088264465332031
1743758163.329,2.5556259155273438,-2.6561279296875,9.102622032165527
1743758163.329,2.593912363052368,-2.7566301822662354,9.083478927612305
1743758163.402,2.713557720184326,-2.761415958404541,9.164837837219238
1743758163.402,2.7566301822662354,-2.699200391769409,9.150480270385742
1743758163.402,2.732701063156128,-2.6656997203826904,9.116979598999023
1743758163.402,2.6752712726593018,-2.7662017345428467,9.03562068939209
1743758163.475,2.6369848251342773,-2.7997024059295654,9.064335823059082
1743758163.475,2.5891265869140625,-2.7949166297912598,9.10740852355957
1743758163.475,2.5891265869140625,-2.7422726154327393,9.121766090393066
1743758163.475,2.6800570487976074,-2.713557720184326,9.188767433166504
1743758163.548,2.6369848251342773,-2.684842824935913,9.207910537719727
1743758163.548,2.6082699298858643,-2.6944146156311035,9.179195404052734
1743758163.548,2.61305570602417,-2.775773286819458,9.19355297088623
1743758163.548,2.593912363052368,-2.732701063156128,9.160052299499512
1743758163.621,2.6034839153289795,-2.7518444061279297,9.21748161315918
1743758163.621,2.6226272583007812,-2.7087719440460205,9.140909194946289
1743758163.621,2.6656997203826904,-2.7709875106811523,9.13133716583252
1743758163.621,2.6896286010742188,-2.718343496322632,9.160052299499512
1743758163.694,2.699200391769409,-2.7709875106811523,9.116979598999023
1743758163.694,2.6609137058258057,-2.7853450775146484,9.10740852355957
1743758163.694,2.6896286010742188,-2.804488182067871,8.94947624206543
1743758163.694,2.579555034637451,-2.775773286819458,9.078693389892578
1743758163.767,2.4503378868103027,-2.7566301822662354,9.0978364944458
1743758163.767,2.627413034439087,-2.7374868392944336,9.155266761779785
1743758163.767,2.6800570487976074,-2.6944146156311035,9.236625671386719
1743758163.767,2.6513421535491943,-2.732701063156128,9.198338508605957
1743758163.84,2.5747690200805664,-2.7422726154327393,9.188767433166504
1743758163.84,2.627413034439087,-2.7566301822662354,9.150480270385742
1743758163.84,2.5891265869140625,-2.718343496322632,9.169623374938965
1743758163.84,2.5412683486938477,-2.7087719440460205,9.136122703552246
1743758163.913,2.584340810775757,-2.7087719440460205,9.059550285339355
1743758163.913,2.593912363052368,-2.747058391571045,9.073907852172852
1743758163.913,2.593912363052368,-2.703986167907715,9.04519271850586
1743758163.913,2.670485496520996,-2.7374868392944336,9.236625671386719
1743758163.986,2.775773286819458,-2.7805593013763428,9.183980941772461
1743758163.986,2.6896286010742188,-2.7231295108795166,9.069121360778809
1743758163.986,2.5891265869140625,-2.7518444061279297,9.01169204711914
1743758163.986,2.5604116916656494,-2.7997024059295654,9.069121360778809
1743758164.059,2.6609137058258057,-2.818845748901367,9.059550285339355
1743758164.059,2.584340810775757,-2.823631525039673,9.054763793945312
1743758164.059,2.565197467803955,-2.7279152870178223,9.13133716583252
1743758164.059,2.5891265869140625,-2.790130853652954,9.078693389892578
1743758164.132,2.6800570487976074,-2.809274196624756,9.136122703552246
1743758164.132,2.5604116916656494,-2.823631525039673,9.150480270385742
1743758164.132,2.5556259155273438,-2.7566301822662354,9.040407180786133
1743758164.132,2.493410348892212,-2.775773286819458,9.116979598999023
1743758164.205,2.522125244140625,-2.7279152870178223,9.069121360778809
1743758164.205,2.5747690200805664,-2.775773286819458,9.01169204711914
1743758164.205,2.5316967964172363,-2.837989091873169,8.982976913452148
1743758164.205,2.493410348892212,-2.7805593013763428,9.179195404052734
1743758164.278,2.5747690200805664,-2.7422726154327393,9.303627014160156
1743758164.278,2.6321988105773926,-2.833203077316284,9.231839179992676
1743758164.278,2.579555034637451,-2.8284173011779785,9.27969741821289
1743758164.278,2.431194543838501,-2.7422726154327393,9.437629699707031
1743758164.351,2.4694812297821045,-2.8140599727630615,9.56684684753418
1743758164.351,2.4503378868103027,-2.852346420288086,9.518988609313965
1743758164.351,2.4264087677001953,-2.9049904346466064,9.428057670593262
1743758164.351,2.2876200675964355,-2.9815635681152344,9.533346176147461
1743758164.424,2.2301902770996094,-2.938491106033325,9.538131713867188
1743758164.424,2.263690948486328,-2.9815635681152344,9.547703742980957
1743758164.424,2.3354783058166504,-3.0054924488067627,9.600347518920898
1743758164.424,2.191903829574585,-2.9959208965301514,9.691277503967285
1743758164.497,1.9334697723388672,-3.259140729904175,9.648205757141113
1743758164.497,1.8903974294662476,-3.2687125205993652,9.423272132873535
1743758164.497,2.4503378868103027,-3.062922477722168,9.796566009521484
1743758164.497,2.718343496322632,-2.8858470916748047,10.0885009765625
1743758164.57,2.818845748901367,-3.0246357917785645,9.705635070800781
1743758164.57,2.852346420288086,-3.000706672668457,9.274911880493164
1743758164.57,2.6369848251342773,-2.823631525039673,9.404129028320312
1743758164.57,2.488624334335327,-2.6752712726593018,9.547703742980957
1743758164.643,2.3785505294799805,-2.6082699298858643,9.499845504760742
1743758164.643,2.249333620071411,-2.5747690200805664,9.36584186553955
1743758164.643,2.0052568912506104,-2.550840139389038,9.255768775939941
1743758164.643,2.0339717864990234,-2.445552110671997,9.317984580993652
1743758164.716,2.1871180534362793,-2.354621648788452,9.499845504760742
1743758164.716,2.3019776344299316,-2.2445478439331055,9.600347518920898
1743758164.716,2.340264081954956,-2.220618724822998,9.55727481842041
1743758164.716,2.1201164722442627,-2.292405843734741,9.351485252380371
1743758164.789,1.651106595993042,-2.627413034439087,8.935118675231934
1743758164.789,1.3639576435089111,-2.8140599727630615,8.303391456604004
1743758164.789,1.3639576435089111,-2.957634449005127,8.303391456604004
1743758164.789,1.416601538658142,-3.153852939605713,8.178959846496582
1743758164.862,1.799466848373413,-3.4314301013946533,7.336656093597412
1743758164.862,2.2589051723480225,-3.6132912635803223,7.030364036560059
1743758164.862,2.488624334335327,-3.694650173187256,7.2265825271606445
1743758164.862,2.3833365440368652,-3.766437292098999,7.030364036560059
1743758164.935,2.172760486602783,-3.8956544399261475,7.0160064697265625
1743758164.935,2.057900905609131,-4.024871349334717,7.001648902893066
1743758164.935,1.7659661769866943,-4.2258758544921875,7.106936931610107
1743758164.935,1.6367491483688354,-4.144516944885254,7.56158971786499
1743758165.008,1.770751953125,-3.91479754447937,8.370392799377441
1743758165.008,2.0914015769958496,-3.9722273349761963,8.944690704345703
1743758165.008,2.057900905609131,-4.082301139831543,9.19355297088623
1743758165.008,1.9526129961013794,-3.962655782699585,9.485487937927246
1743758165.081,1.9861136674880981,-3.4170727729797363,10.303862571716309
1743758165.081,2.2014753818511963,-3.254354953765869,10.552724838256836
1743758165.081,2.6800570487976074,-3.5606472492218018,9.696063995361328
1743758165.081,2.8906328678131104,-4.091872692108154,8.805901527404785
1743758165.154,2.852346420288086,-3.9722273349761963,8.920761108398438
1743758165.154,2.8714897632598877,-3.6850783824920654,9.514202117919922
1743758165.154,3.2687125205993652,-3.4553592205047607,9.806137084960938
1743758165.154,3.704221725463867,-3.273498296737671,9.758278846740723
1743758165.227,3.991370677947998,-2.881061315536499,9.93056869506836
1743758165.227,4.048800468444824,-2.4694812297821045,10.179430961608887
1743758165.227,3.857367753982544,-2.4503378868103027,9.8444242477417
1743758165.227,2.7709875106811523,-2.8475606441497803,8.848974227905273
1743758165.3,2.177546262741089,-2.833203077316284,8.686256408691406
1743758165.3,1.8233959674835205,-2.5412683486938477,9.145694732666016
1743758165.3,2.086615800857544,-2.292405843734741,9.56684684753418
1743758165.3,2.6656997203826904,-2.2158329486846924,9.270126342773438
1743758165.373,2.957634449005127,-2.3641932010650635,8.743685722351074
1743758165.373,2.8619179725646973,-2.3067634105682373,8.729329109191895
1743758165.373,2.416837215423584,-2.1536173820495605,9.246196746826172
1743758165.373,2.158403158187866,-2.1679747104644775,9.222268104553223
1743758165.446,2.1536173820495605,-2.129688262939453,9.116979598999023
1743758165.446,2.1871180534362793,-2.014828681945801,9.28926944732666
1743758165.446,1.9430413246154785,-2.134474039077759,9.054763793945312
1743758165.446,1.6463208198547363,-2.3929080963134766,8.600111961364746
1743758165.519,1.3448143005371094,-2.388122320175171,8.657541275024414
1743758165.519,1.139024257659912,-2.3019776344299316,8.667113304138184
1743758165.519,1.0241646766662598,-2.61305570602417,8.724542617797852
1743758165.519,0.9475916028022766,-2.641770601272583,8.930333137512207
1743758165.592,1.1007376909255981,-2.584340810775757,8.992548942565918
1743758165.592,1.2586696147918701,-2.5556259155273438,9.169623374938965
1743758165.592,1.6989647150039673,-2.5699832439422607,9.260554313659668
1743758165.592,2.0961875915527344,-2.732701063156128,9.198338508605957
1743758165.665,2.3450498580932617,-2.6800570487976074,9.600347518920898
1743758165.665,2.522125244140625,-2.3785505294799805,10.413935661315918
1743758165.665,2.713557720184326,-2.2014753818511963,11.122237205505371
1743758165.665,2.938491106033325,-1.9861136674880981,11.7539644241333
1743758165.738,2.881061315536499,-1.8233959674835205,12.098543167114258
1743758165.738,2.852346420288086,-1.718108057975769,12.194259643554688
1743758165.738,2.818845748901367,-1.6463208198547363,12.146401405334473
1743758165.738,2.713557720184326,-1.4596738815307617,12.069828033447266
1743758165.811,2.5699832439422607,-1.2108114957809448,12.108115196228027
1743758165.811,2.4503378868103027,-0.8662327527999878,11.978898048400879
1743758165.811,2.565197467803955,-0.49772489070892334,11.811394691467285
1743758165.811,2.837989091873169,-0.14836029708385468,11.51945972442627
1743758165.884,3.0054924488067627,-0.1005021408200264,10.969090461730957
1743758165.884,2.9624202251434326,-0.04307234659790993,10.107644081115723
1743758165.884,2.7422726154327393,-0.30629223585128784,9.102622032165527
1743758165.884,2.292405843734741,-0.44986671209335327,8.111958503723145
1743758165.957,1.9478272199630737,-0.727444052696228,7.480230808258057
1743758165.957,1.7851094007492065,-0.9380199909210205,7.140437602996826
1743758165.957,1.584105134010315,-1.1198810338974,6.877217769622803
1743758165.957,1.3735291957855225,-1.2825987339019775,6.743215084075928
1743758166.03,1.3831008672714233,-1.4836030006408691,6.465637683868408
1743758166.03,1.4070299863815308,-1.7946810722351074,6.33642053604126
1743758166.03,1.464459776878357,-1.9478272199630737,6.3412065505981445
1743758166.03,1.335242748260498,-2.1392598152160645,6.5804972648620605
1743758166.103,1.4453164339065552,-2.292405843734741,6.872432231903076
1743758166.103,1.9478272199630737,-2.5604116916656494,6.958576679229736
1743758166.103,2.177546262741089,-2.5891265869140625,7.355799674987793
1743758166.103,1.957398772239685,-2.4264087677001953,8.131101608276367
1743758166.176,1.799466848373413,-2.3354783058166504,8.667113304138184
1743758166.176,1.679821491241455,-2.3354783058166504,9.207910537719727
1743758166.176,1.6032484769821167,-2.172760486602783,9.887495994567871
1743758166.176,1.6415349245071411,-2.0770442485809326,10.543152809143066
1743758166.249,1.7085363864898682,-2.129688262939453,10.844659805297852
1743758166.249,1.8664683103561401,-2.2158329486846924,10.978662490844727
1743758166.249,1.8521108627319336,-2.2301902770996094,10.940375328063965
1743758166.249,1.8999689817428589,-2.340264081954956,10.792015075683594
1743758166.322,1.9382555484771729,-2.445552110671997,10.51443862915039
1743758166.322,1.7611804008483887,-2.565197467803955,10.294290542602539
1743758166.322,1.6415349245071411,-2.61305570602417,10.232074737548828
1743758166.322,1.4883887767791748,-2.747058391571045,9.949711799621582
1743758166.395,1.6176059246063232,-2.8427748680114746,9.657776832580566
1743758166.395,1.7659661769866943,-2.9193477630615234,9.600347518920898
1743758166.395,2.158403158187866,-2.938491106033325,9.600347518920898
1743758166.395,2.5412683486938477,-3.000706672668457,9.705635070800781
1743758166.468,3.0054924488067627,-3.1299238204956055,9.973641395568848
1743758166.468,3.450573444366455,-3.0820655822753906,10.318220138549805
1743758166.468,3.6372203826904297,-2.7997024059295654,11.208381652832031
1743758166.468,3.8190813064575195,-2.0770442485809326,12.76855754852295
1743758166.541,4.46995210647583,-1.1916682720184326,13.6300048828125
1743758166.541,4.618312835693359,-0.8183745741844177,13.5247163772583
1743758166.541,4.594383716583252,-0.7848738431930542,12.352191925048828
1743758166.541,4.2545905113220215,-0.8805902004241943,11.361527442932129
1743758166.614,3.49843168258667,-0.7753022313117981,10.930804252624512
1743758166.614,2.6752712726593018,-0.6652284264564514,10.619726181030273
1743758166.614,2.4981961250305176,-0.8040171265602112,9.882710456848145
1743758166.614,2.1057591438293457,-1.0002355575561523,8.810688018798828
1743758166.687,1.6415349245071411,-1.081594467163086,8.2124605178833
1743758166.687,1.306527853012085,-1.2443121671676636,7.70037841796875
1743758166.687,1.1246668100357056,-1.3496001958847046,7.240940093994141
1743758166.687,1.1007376909255981,-1.4883887767791748,6.877217769622803
1743758166.76,1.4070299863815308,-1.6080342531204224,6.7767157554626465
1743758166.76,1.4740313291549683,-1.8712540864944458,6.5374250411987305
1743758166.76,1.6463208198547363,-2.072258472442627,6.494352340698242
1743758166.76,1.7516087293624878,-2.2110471725463867,6.886789321899414
1743758166.833,1.612820029258728,-2.1057591438293457,7.566375255584717
1743758166.833,1.531461238861084,-2.14404559135437,8.360820770263672
1743758166.833,1.966970443725586,-2.3019776344299316,9.002120018005371
1743758166.833,2.8475606441497803,-2.2876200675964355,9.39934253692627
1743758166.906,3.254354953765869,-2.1966896057128906,9.853995323181152
1743758166.906,3.163424491882324,-1.8616825342178345,10.576653480529785
1743758166.906,3.043779134750366,-1.6271774768829346,10.873373985290527
1743758166.906,2.8427748680114746,-1.5027462244033813,10.80637264251709
1743758166.979,2.4072654247283936,-1.742037057876587,9.830066680908203
1743758166.979,1.9765421152114868,-1.9813278913497925,9.10740852355957
1743758166.979,1.7085363864898682,-1.837753415107727,8.944690704345703
1743758166.979,1.1055235862731934,-1.957398772239685,8.724542617797852
1743758167.052,1.0528795719146729,-1.9478272199630737,8.638398170471191
1743758167.052,0.9667348861694336,-1.876039981842041,8.748472213745117
1743758167.052,0.765730619430542,-1.7563945055007935,8.93990421295166
1743758167.052,0.5934411883354187,-1.6702498197555542,8.954261779785156
1743758167.125,0.4737958014011383,-1.6080342531204224,8.901618003845215
1743758167.125,0.2919347882270813,-1.6702498197555542,8.906403541564941
1743758167.125,0.1005021408200264,-1.7133221626281738,8.882474899291992
1743758167.125,-0.13400284945964813,-1.8425391912460327,8.930333137512207
1743758167.198,-0.08614469319581985,-1.8281817436218262,9.183980941772461
1743758167.198,0.1005021408200264,-1.837753415107727,9.581204414367676
1743758167.198,0.36850783228874207,-1.957398772239685,9.873138427734375
1743758167.198,0.4833674430847168,-2.278048515319824,10.126787185668945
1743758167.271,0.49772489070892334,-2.479052782058716,10.504866600036621
1743758167.271,0.3732936680316925,-2.2301902770996094,11.256239891052246
1743758167.271,0.4833674430847168,-1.454888105392456,12.873845100402832
1743758167.271,1.0863802433013916,-0.6556568145751953,14.242588996887207
1743758167.344,1.5075321197509766,-0.181861013174057,14.544095039367676
1743758167.344,2.191903829574585,0.023929081857204437,14.103800773620605
1743758167.344,2.641770601272583,0.07657305896282196,13.70657730102539
1743758167.344,2.9528486728668213,0.7705163955688477,13.64436149597168
1743758167.417,2.9672060012817383,1.3926725387573242,13.687434196472168
1743758167.417,3.0246357917785645,1.622391700744629,12.701556205749512
1743758167.417,2.684842824935913,1.4501023292541504,11.184452056884766
1743758167.417,2.0961875915527344,1.3400285243988037,10.107644081115723
1743758167.49,1.1820966005325317,1.0863802433013916,9.093050956726074
1743758167.49,0.31586387753486633,0.9810923337936401,8.600111961364746
1743758167.49,-0.40679436922073364,0.9906639456748962,8.384750366210938
1743758167.49,-0.8853759765625,0.8423036336898804,8.15981674194336
1743758167.563,-1.0528795719146729,0.6269419193267822,7.9013824462890625
1743758167.563,-1.0002355575561523,0.3541503846645355,7.5568037033081055
1743758167.563,-0.923662543296814,0.06221561133861542,7.284012317657471
1743758167.563,-1.0050214529037476,-0.3206496834754944,7.1500091552734375
1743758167.636,-0.9428057670593262,-0.5072965025901794,7.025578022003174
1743758167.636,-0.9380199909210205,-0.952377438545227,7.126080513000488
1743758167.636,-0.6317277550697327,-1.1007376909255981,7.169152736663818
1743758167.636,-0.5742979645729065,-1.3304568529129028,7.341442108154297
1743758167.709,-0.7513731122016907,-1.3783150911331177,7.867881774902344
1743758167.709,-0.6843717098236084,-1.4453164339065552,8.413464546203613
1743758167.709,-0.49772489070892334,-1.3304568529129028,8.892046928405762
1743758167.709,-0.4546525478363037,-1.4836030006408691,9.169623374938965
1743758167.782,-0.17707519233226776,-1.622391700744629,9.418486595153809
1743758167.782,0.03350071236491203,-1.799466848373413,9.700849533081055
1743758167.782,0.028714897111058235,-1.9143264293670654,10.007142066955566
1743758167.782,0.03350071236491203,-1.966970443725586,10.303862571716309
