                                                                                AngularVelocity                                                                 04.04.2511.32.4552  
Timestamp,GyroX,GyroY,GyroZ
1743758136.83,0.9100000262260437,-1.75,-0.2800000011920929
1743758136.83,0.14000000059604645,-3.640000104904175,0.14000000059604645
1743758136.83,-0.42000001668930054,-4.130000114440918,0.49000000953674316
1743758136.83,-0.6299999952316284,-3.009999990463257,0.6299999952316284
1743758136.903,-0.9100000262260437,-3.3600001335144043,1.190000057220459
1743758136.903,-1.399999976158142,-3.009999990463257,0.14000000059604645
1743758136.903,-2.0299999713897705,-2.380000114440918,0.14000000059604645
1743758136.903,-2.870000123977661,-3.9200000762939453,-0.3499999940395355
1743758136.976,-4.340000152587891,-7.769999980926514,-0.699999988079071
1743758136.976,-6.440000057220459,-10.359999656677246,-2.799999952316284
1743758136.976,-6.789999961853027,-11.199999809265137,-3.0799999237060547
1743758136.976,-4.690000057220459,-10.920000076293945,-2.5899999141693115
1743758137.049,-3.7799999713897705,-10.220000267028809,-2.0299999713897705
1743758137.049,-1.8899999856948853,-8.680000305175781,-1.8899999856948853
1743758137.049,0.07000000029802322,-7.840000152587891,-1.190000057220459
1743758137.049,1.190000057220459,-7.490000247955322,-0.9800000190734863
1743758137.122,2.799999952316284,-6.929999828338623,0.21000000834465027
1743758137.122,4.760000228881836,-5.179999828338623,1.6100000143051147
1743758137.122,7.070000171661377,-5.599999904632568,2.870000123977661
1743758137.122,7,-6.369999885559082,4.340000152587891
1743758137.195,7.909999847412109,-4.550000190734863,6.440000057220459
1743758137.195,10.010000228881836,-2.870000123977661,8.75
1743758137.195,9.9399995803833,-2.0999999046325684,9.800000190734863
1743758137.195,9.9399995803833,-0.9100000262260437,9.100000381469727
1743758137.268,9.380000114440918,-0.699999988079071,8.680000305175781
1743758137.268,8.1899995803833,-1.190000057220459,7.699999809265137
1743758137.268,8.260000228881836,-2.5899999141693115,7.699999809265137
1743758137.268,6.650000095367432,-3.9200000762939453,6.510000228881836
1743758137.341,4.96999979019165,-4.409999847412109,5.460000038146973
1743758137.341,4.269999980926514,-3.3600001335144043,3.7799999713897705
1743758137.341,4.480000019073486,-3.7100000381469727,2.5899999141693115
1743758137.341,3.430000066757202,-3.640000104904175,1.75
1743758137.414,2.5199999809265137,-3.569999933242798,1.3300000429153442
1743758137.414,1.6800000667572021,-3.640000104904175,0.9100000262260437
1743758137.414,0.6299999952316284,-3.990000009536743,0.3499999940395355
1743758137.414,-0.699999988079071,-3.009999990463257,-0.07000000029802322
1743758137.487,-0.9100000262260437,-1.399999976158142,0.42000001668930054
1743758137.487,-0.7699999809265137,-0.8400000333786011,0.3499999940395355
1743758137.487,-1.2599999904632568,-2.799999952316284,0.5600000023841858
1743758137.487,-2.380000114440918,-2.450000047683716,0.21000000834465027
1743758137.56,-1.0499999523162842,-1.4700000286102295,0.14000000059604645
1743758137.56,-1.1200000047683716,0.21000000834465027,-0.2800000011920929
1743758137.56,-1.6100000143051147,-0.49000000953674316,-0.3499999940395355
1743758137.56,-1.4700000286102295,0.07000000029802322,-0.9100000262260437
1743758137.633,-1.0499999523162842,0.8400000333786011,-1.5399999618530273
1743758137.633,-0.3499999940395355,-0.49000000953674316,-1.6800000667572021
1743758137.633,-1.0499999523162842,-0.3499999940395355,-1.1200000047683716
1743758137.633,-0.42000001668930054,0.49000000953674316,-0.9100000262260437
1743758137.706,-1.0499999523162842,1.5399999618530273,-0.8400000333786011
1743758137.706,-1.5399999618530273,0.8400000333786011,-0.14000000059604645
1743758137.706,-2.0999999046325684,0.8400000333786011,0.8400000333786011
1743758137.706,-2.0299999713897705,1.6100000143051147,0.3499999940395355
1743758137.779,-2.309999942779541,0.5600000023841858,-0.14000000059604645
1743758137.779,-3.5,-0.49000000953674316,0.5600000023841858
1743758137.779,-2.5199999809265137,-0.699999988079071,0.3499999940395355
1743758137.779,-3.569999933242798,-0.5600000023841858,-1.1200000047683716
1743758137.852,-3.7799999713897705,-1.8200000524520874,-1.3300000429153442
1743758137.852,-3.8499999046325684,-3.1500000953674316,-0.5600000023841858
1743758137.852,-3.5,0.2800000011920929,0
1743758137.852,-1.4700000286102295,4.409999847412109,1.3300000429153442
1743758137.925,-0.9800000190734863,4.059999942779541,3.1500000953674316
1743758137.925,-1.6100000143051147,2.5899999141693115,4.130000114440918
1743758137.925,-2.450000047683716,0.14000000059604645,4.760000228881836
1743758137.925,-2.1700000762939453,-0.699999988079071,2.5199999809265137
1743758137.998,-0.2800000011920929,-1.3300000429153442,1.2599999904632568
1743758137.998,0.9100000262260437,-0.6299999952316284,1.399999976158142
1743758137.998,1.4700000286102295,0.9100000262260437,1.6800000667572021
1743758137.998,3.1500000953674316,1.1200000047683716,1.0499999523162842
1743758138.071,3.569999933242798,0.07000000029802322,0.14000000059604645
1743758138.071,2.240000009536743,-0.49000000953674316,-0.42000001668930054
1743758138.071,2.380000114440918,0.2800000011920929,0.699999988079071
1743758138.071,3.1500000953674316,1.6800000667572021,1.5399999618530273
1743758138.144,1.8899999856948853,1.2599999904632568,2.799999952316284
1743758138.144,0.49000000953674316,0.9100000262260437,3.2899999618530273
1743758138.144,0.7699999809265137,1.4700000286102295,3.5
1743758138.144,0.6299999952316284,2.380000114440918,3.009999990463257
1743758138.217,-0.21000000834465027,1.6100000143051147,2.940000057220459
1743758138.217,-0.5600000023841858,0.42000001668930054,2.309999942779541
1743758138.217,-0.7699999809265137,1.2599999904632568,2.309999942779541
1743758138.217,-0.49000000953674316,3.1500000953674316,3.2899999618530273
1743758138.29,0.49000000953674316,4.829999923706055,4.199999809265137
1743758138.29,0.7699999809265137,4.059999942779541,3.640000104904175
1743758138.29,-0.6299999952316284,1.1200000047683716,2.1700000762939453
1743758138.29,-1.4700000286102295,-1.190000057220459,1.5399999618530273
1743758138.363,-1.0499999523162842,-0.6299999952316284,1.75
1743758138.363,-0.6299999952316284,1.4700000286102295,2.309999942779541
1743758138.363,0,3.2200000286102295,2.309999942779541
1743758138.363,-0.2800000011920929,3.9200000762939453,2.380000114440918
1743758138.436,-0.49000000953674316,2.380000114440918,1.8200000524520874
1743758138.436,-1.4700000286102295,0.9800000190734863,1.2599999904632568
1743758138.436,-1.8899999856948853,0,0.8400000333786011
1743758138.436,-1.6800000667572021,-0.21000000834465027,0.42000001668930054
1743758138.509,-0.9100000262260437,0.42000001668930054,0.49000000953674316
1743758138.509,-0.42000001668930054,1.8200000524520874,0.2800000011920929
1743758138.509,-0.49000000953674316,3.0799999237060547,0.3499999940395355
1743758138.509,-0.3499999940395355,2.7300000190734863,0.49000000953674316
1743758138.582,-1.2599999904632568,0.7699999809265137,0.42000001668930054
1743758138.582,-2.0999999046325684,-0.9800000190734863,0.14000000059604645
1743758138.582,-1.5399999618530273,-0.42000001668930054,1.190000057220459
1743758138.582,-0.07000000029802322,1.4700000286102295,1.6800000667572021
1743758138.655,-0.2800000011920929,3.0799999237060547,2.380000114440918
1743758138.655,-0.699999988079071,2.6600000858306885,2.940000057220459
1743758138.655,0,1.75,2.870000123977661
1743758138.655,0.7699999809265137,1.190000057220459,2.5899999141693115
1743758138.728,0.5600000023841858,1.2599999904632568,1.5399999618530273
1743758138.728,0,0.8400000333786011,1.190000057220459
1743758138.728,0.21000000834465027,0.49000000953674316,1.399999976158142
1743758138.728,0.14000000059604645,1.75,1.8200000524520874
1743758138.801,0.5600000023841858,2.1700000762939453,2.309999942779541
1743758138.801,0,1.8200000524520874,1.9600000381469727
1743758138.801,-0.9800000190734863,0.7699999809265137,1.6800000667572021
1743758138.801,-0.21000000834465027,0.7699999809265137,1.4700000286102295
1743758138.874,0.49000000953674316,1.2599999904632568,2.309999942779541
1743758138.874,0.21000000834465027,0.7699999809265137,2.0299999713897705
1743758138.874,-0.8400000333786011,1.399999976158142,1.190000057220459
1743758138.874,0.14000000059604645,2.6600000858306885,0.9800000190734863
1743758138.947,1.75,1.9600000381469727,1.0499999523162842
1743758138.947,1.3300000429153442,-0.5600000023841858,-0.14000000059604645
1743758138.947,0.6299999952316284,-2.380000114440918,-1.399999976158142
1743758138.947,0.699999988079071,-2.450000047683716,-1.2599999904632568
1743758139.02,2.1700000762939453,-1.6100000143051147,-1.2599999904632568
1743758139.02,2.450000047683716,-1.8200000524520874,-1.399999976158142
1743758139.02,1.6800000667572021,-0.5600000023841858,-1.8899999856948853
1743758139.02,1.6800000667572021,-0.21000000834465027,-1.4700000286102295
1743758139.093,1.3300000429153442,-0.9800000190734863,-1.0499999523162842
1743758139.093,0.6299999952316284,-1.6800000667572021,-1.4700000286102295
1743758139.093,0.2800000011920929,-1.6100000143051147,-1.190000057220459
1743758139.093,0.3499999940395355,-1.0499999523162842,-0.3499999940395355
1743758139.166,0.2800000011920929,-0.8400000333786011,-0.42000001668930054
1743758139.166,-0.07000000029802322,-1.4700000286102295,-0.3499999940395355
1743758139.166,0.5600000023841858,-0.7699999809265137,-0.5600000023841858
1743758139.166,0.9800000190734863,0.2800000011920929,-0.21000000834465027
1743758139.239,0.699999988079071,0.699999988079071,0.07000000029802322
1743758139.239,0.2800000011920929,-0.14000000059604645,-0.14000000059604645
1743758139.239,0.6299999952316284,-0.7699999809265137,-0.6299999952316284
1743758139.239,0.7699999809265137,0.14000000059604645,-0.9800000190734863
1743758139.312,0.9100000262260437,0.3499999940395355,-1.1200000047683716
1743758139.312,0.6299999952316284,-0.14000000059604645,-1.190000057220459
1743758139.312,0.2800000011920929,0.14000000059604645,-1.190000057220459
1743758139.312,0.2800000011920929,0.14000000059604645,-1.1200000047683716
1743758139.385,0.42000001668930054,0.2800000011920929,-1.6100000143051147
1743758139.385,0.8400000333786011,0.07000000029802322,-1.8899999856948853
1743758139.385,0.42000001668930054,0.8400000333786011,-2.0999999046325684
1743758139.385,0.07000000029802322,1.1200000047683716,-1.4700000286102295
1743758139.458,-0.3499999940395355,1.0499999523162842,-1.2599999904632568
1743758139.458,-0.7699999809265137,0.699999988079071,-1.5399999618530273
1743758139.458,-0.42000001668930054,-0.07000000029802322,-1.9600000381469727
1743758139.458,-0.2800000011920929,-0.21000000834465027,-1.399999976158142
1743758139.531,-0.5600000023841858,0,-1.5399999618530273
1743758139.531,-0.21000000834465027,0.07000000029802322,-2.0999999046325684
1743758139.531,0.5600000023841858,0.699999988079071,-1.75
1743758139.531,1.1200000047683716,1.2599999904632568,-1.5399999618530273
1743758139.604,0.5600000023841858,0.699999988079071,-1.75
1743758139.604,-0.21000000834465027,0,-2.240000009536743
1743758139.604,0.9100000262260437,-1.0499999523162842,-2.309999942779541
1743758139.604,0.9100000262260437,-0.7699999809265137,-2.870000123977661
1743758139.677,1.0499999523162842,-0.21000000834465027,-2.870000123977661
1743758139.677,0.9800000190734863,0.07000000029802322,-2.380000114440918
1743758139.677,0.5600000023841858,0.3499999940395355,-2.0999999046325684
1743758139.677,0.6299999952316284,0.699999988079071,-2.380000114440918
1743758139.75,0.699999988079071,0.49000000953674316,-2.7300000190734863
1743758139.75,0.9100000262260437,-0.9800000190734863,-3.5
1743758139.75,1.0499999523162842,-3.0799999237060547,-4.059999942779541
1743758139.75,2.1700000762939453,-3.7100000381469727,-4.059999942779541
1743758139.823,3.7799999713897705,-2.0999999046325684,-3.7100000381469727
1743758139.823,5.389999866485596,-0.49000000953674316,-3.8499999046325684
1743758139.823,6.369999885559082,-0.49000000953674316,-4.199999809265137
1743758139.823,6.720000267028809,-0.9100000262260437,-5.110000133514404
1743758139.896,7.28000020980835,-0.2800000011920929,-5.389999866485596
1743758139.896,7.28000020980835,2.240000009536743,-4.199999809265137
1743758139.896,7.070000171661377,4.340000152587891,-2.7300000190734863
1743758139.896,5.740000247955322,5.039999961853027,-2.5899999141693115
1743758139.969,4.480000019073486,5.039999961853027,-2.7300000190734863
1743758139.969,3.3600001335144043,5.389999866485596,-3.5
1743758139.969,1.399999976158142,6.720000267028809,-4.900000095367432
1743758139.969,-0.699999988079071,5.949999809265137,-5.809999942779541
1743758140.042,-2.380000114440918,5.320000171661377,-8.609999656677246
1743758140.042,-5.039999961853027,3.2200000286102295,-9.869999885559082
1743758140.042,-7.630000114440918,2.799999952316284,-11.619999885559082
1743758140.042,-9.380000114440918,3.2200000286102295,-13.15999984741211
1743758140.115,-10.5,3.2899999618530273,-15.119999885559082
1743758140.115,-11.760000228881836,1.2599999904632568,-17.56999969482422
1743758140.115,-12.949999809265137,-0.14000000059604645,-20.229999542236328
1743758140.115,-12.739999771118164,-0.8400000333786011,-23.239999771118164
1743758140.188,-12.460000038146973,-0.9100000262260437,-24.71000099182129
1743758140.188,-12.039999961853027,-0.7699999809265137,-24.43000030517578
1743758140.188,-12.180000305175781,0.42000001668930054,-23.3799991607666
1743758140.188,-12.529999732971191,2.240000009536743,-22.049999237060547
1743758140.261,-12.739999771118164,1.9600000381469727,-20.09000015258789
1743758140.261,-14.140000343322754,2.450000047683716,-19.46000099182129
1743758140.261,-13.859999656677246,5.179999828338623,-18.479999542236328
1743758140.261,-12.039999961853027,7.840000152587891,-17.5
1743758140.334,-12.180000305175781,7.840000152587891,-17.639999389648438
1743758140.334,-11.550000190734863,7.559999942779541,-18.40999984741211
1743758140.334,-10.430000305175781,7.769999980926514,-18.059999465942383
1743758140.334,-10.220000267028809,8.050000190734863,-17.149999618530273
1743758140.407,-10.359999656677246,7.28000020980835,-15.399999618530273
1743758140.407,-9.59000015258789,5.670000076293945,-14.489999771118164
1743758140.407,-9.449999809265137,3.2899999618530273,-14.069999694824219
1743758140.407,-10.149999618530273,2.309999942779541,-13.300000190734863
1743758140.48,-9.029999732971191,3.569999933242798,-11.6899995803833
1743758140.48,-7.840000152587891,5.53000020980835,-10.220000267028809
1743758140.48,-7.139999866485596,5.460000038146973,-9.380000114440918
1743758140.48,-7.420000076293945,4.409999847412109,-8.399999618530273
1743758140.553,-6.300000190734863,2.5899999141693115,-7.349999904632568
1743758140.553,-5.460000038146973,0.8400000333786011,-6.440000057220459
1743758140.553,-4.619999885559082,-0.5600000023841858,-5.110000133514404
1743758140.553,-2.7300000190734863,-1.2599999904632568,-3.640000104904175
1743758140.626,-1.4700000286102295,-1.0499999523162842,-2.0999999046325684
1743758140.626,0.8400000333786011,-0.49000000953674316,-0.5600000023841858
1743758140.626,2.7300000190734863,-0.7699999809265137,1.4700000286102295
1743758140.626,3.2899999618530273,-1.6100000143051147,2.799999952316284
1743758140.699,3.990000009536743,-2.1700000762939453,3.7100000381469727
1743758140.699,5.110000133514404,-2.5199999809265137,5.179999828338623
1743758140.699,5.670000076293945,-1.8200000524520874,6.510000228881836
1743758140.699,6.159999847412109,-0.6299999952316284,7.630000114440918
1743758140.772,6.510000228881836,-1.399999976158142,8.470000267028809
1743758140.772,6.369999885559082,-3.2899999618530273,8.329999923706055
1743758140.772,5.740000247955322,-3.9200000762939453,8.260000228881836
1743758140.772,5.670000076293945,-3.430000066757202,8.539999961853027
1743758140.845,5.740000247955322,-2.240000009536743,8.260000228881836
1743758140.845,6.369999885559082,-2.5899999141693115,7.630000114440918
1743758140.845,6.650000095367432,-3.9200000762939453,6.929999828338623
1743758140.845,5.949999809265137,-4.480000019073486,6.579999923706055
1743758140.918,5.670000076293945,-4.480000019073486,6.230000019073486
1743758140.918,5.809999942779541,-4.480000019073486,5.740000247955322
1743758140.918,5.949999809265137,-5.110000133514404,4.96999979019165
1743758140.918,5.880000114440918,-4.409999847412109,5.389999866485596
1743758140.991,6.440000057220459,-3.8499999046325684,5.949999809265137
1743758140.991,5.53000020980835,-4.269999980926514,6.090000152587891
1743758140.991,5.389999866485596,-4.199999809265137,5.039999961853027
1743758140.991,6.300000190734863,-3.7100000381469727,5.110000133514404
1743758141.064,6.159999847412109,-2.0299999713897705,5.110000133514404
1743758141.064,6.440000057220459,-0.9100000262260437,5.25
1743758141.064,6.369999885559082,-1.4700000286102295,4.409999847412109
1743758141.064,5.110000133514404,-3.7100000381469727,3.5
1743758141.137,4.619999885559082,-5.179999828338623,2.870000123977661
1743758141.137,4.690000057220459,-4.059999942779541,3.2899999618530273
1743758141.137,4.690000057220459,-1.8899999856948853,3.8499999046325684
1743758141.137,4.480000019073486,0.21000000834465027,3.5
1743758141.21,4.130000114440918,-0.49000000953674316,3.5
1743758141.21,3.3600001335144043,-2.240000009536743,3.3600001335144043
1743758141.21,3.2200000286102295,-3.430000066757202,3.8499999046325684
1743758141.21,3.2899999618530273,-2.5899999141693115,3.7799999713897705
1743758141.283,3.7799999713897705,-0.9100000262260437,3.9200000762939453
1743758141.283,3.990000009536743,0.2800000011920929,3.990000009536743
1743758141.283,3.430000066757202,-0.6299999952316284,4.480000019073486
1743758141.283,2.380000114440918,0.21000000834465027,3.7100000381469727
1743758141.356,2.6600000858306885,-0.9800000190734863,3.8499999046325684
1743758141.356,1.399999976158142,-1.6100000143051147,3.1500000953674316
1743758141.356,1.6100000143051147,-2.6600000858306885,3.5
1743758141.356,1.75,-2.0299999713897705,3.7799999713897705
1743758141.429,1.5399999618530273,-0.42000001668930054,3.0799999237060547
1743758141.429,1.8200000524520874,-1.399999976158142,2.799999952316284
1743758141.429,1.4700000286102295,-1.190000057220459,2.240000009536743
1743758141.429,2.309999942779541,-0.9100000262260437,2.380000114440918
1743758141.502,2.309999942779541,-0.42000001668930054,1.8200000524520874
1743758141.502,2.380000114440918,-1.9600000381469727,2.0299999713897705
1743758141.502,1.4700000286102295,-1.9600000381469727,1.5399999618530273
1743758141.502,2.450000047683716,-0.9100000262260437,1.1200000047683716
1743758141.575,3.0799999237060547,0.2800000011920929,0.699999988079071
1743758141.575,2.5899999141693115,-0.2800000011920929,0.49000000953674316
1743758141.575,2.380000114440918,-2.0999999046325684,-0.14000000059604645
1743758141.575,1.6100000143051147,-2.0999999046325684,0
1743758141.648,2.240000009536743,-1.4700000286102295,0
1743758141.648,1.6800000667572021,-0.21000000834465027,0.3499999940395355
1743758141.648,1.5399999618530273,0.14000000059604645,0.8400000333786011
1743758141.648,1.6800000667572021,-0.699999988079071,1.0499999523162842
1743758141.721,0.7699999809265137,-1.1200000047683716,1.399999976158142
1743758141.721,0.7699999809265137,-0.7699999809265137,1.8899999856948853
1743758141.721,1.0499999523162842,0.07000000029802322,2.0299999713897705
1743758141.721,1.6800000667572021,1.1200000047683716,1.8899999856948853
1743758141.794,1.0499999523162842,0.9100000262260437,1.6800000667572021
1743758141.794,0.07000000029802322,-0.699999988079071,2.0299999713897705
1743758141.794,-0.3499999940395355,-1.4700000286102295,1.399999976158142
1743758141.794,0.6299999952316284,-2.6600000858306885,1.2599999904632568
1743758141.867,0.7699999809265137,-2.240000009536743,0.7699999809265137
1743758141.867,1.399999976158142,-1.0499999523162842,0.6299999952316284
1743758141.867,1.5399999618530273,0.21000000834465027,0.6299999952316284
1743758141.867,2.0999999046325684,-1.1200000047683716,0.699999988079071
1743758141.94,0.7699999809265137,-1.3300000429153442,0.699999988079071
1743758141.94,1.4700000286102295,-1.6800000667572021,0.699999988079071
1743758141.94,2.0299999713897705,-1.1200000047683716,1.1200000047683716
1743758141.94,1.9600000381469727,-1.75,1.0499999523162842
1743758142.013,1.6100000143051147,-1.8899999856948853,0.6299999952316284
1743758142.013,1.6800000667572021,-0.9800000190734863,0.2800000011920929
1743758142.013,1.9600000381469727,-1.0499999523162842,0.699999988079071
1743758142.013,1.2599999904632568,-1.6100000143051147,1.2599999904632568
1743758142.086,1.9600000381469727,-1.2599999904632568,1.3300000429153442
1743758142.086,2.0999999046325684,-0.6299999952316284,1.190000057220459
1743758142.086,2.1700000762939453,-1.3300000429153442,1.1200000047683716
1743758142.086,1.8200000524520874,-1.8899999856948853,0.2800000011920929
1743758142.159,1.75,-1.8899999856948853,-0.14000000059604645
1743758142.159,1.75,-0.7699999809265137,0.07000000029802322
1743758142.159,2.0999999046325684,-0.42000001668930054,0.9800000190734863
1743758142.159,2.0999999046325684,-0.42000001668930054,1.399999976158142
1743758142.232,1.8899999856948853,-1.399999976158142,1.0499999523162842
1743758142.232,1.8200000524520874,-0.9800000190734863,0.42000001668930054
1743758142.232,1.6800000667572021,-1.190000057220459,0.8400000333786011
1743758142.232,1.399999976158142,-0.6299999952316284,1.1200000047683716
1743758142.305,1.8200000524520874,-0.49000000953674316,0.7699999809265137
1743758142.305,1.6800000667572021,-0.2800000011920929,0.2800000011920929
1743758142.305,2.309999942779541,-1.3300000429153442,0.21000000834465027
1743758142.305,1.8200000524520874,-1.9600000381469727,0.2800000011920929
1743758142.378,1.190000057220459,-1.2599999904632568,-0.07000000029802322
1743758142.378,1.75,0.3499999940395355,0.3499999940395355
1743758142.378,1.8899999856948853,0.42000001668930054,0.699999988079071
1743758142.378,1.8200000524520874,-1.190000057220459,0.8400000333786011
1743758142.451,1.190000057220459,-1.75,0.5600000023841858
1743758142.451,1.2599999904632568,-1.3300000429153442,1.4700000286102295
1743758142.451,1.6100000143051147,-0.07000000029802322,1.6800000667572021
1743758142.451,1.8899999856948853,0,1.8899999856948853
1743758142.524,1.6100000143051147,0.07000000029802322,1.5399999618530273
1743758142.524,1.6800000667572021,-0.21000000834465027,1.4700000286102295
1743758142.524,1.190000057220459,-0.42000001668930054,1.4700000286102295
1743758142.524,1.4700000286102295,-1.399999976158142,1.4700000286102295
1743758142.597,1.3300000429153442,-1.75,1.5399999618530273
1743758142.597,0.7699999809265137,-1.6100000143051147,2.0999999046325684
1743758142.597,0.9100000262260437,-0.8400000333786011,2.6600000858306885
1743758142.597,1.0499999523162842,-0.2800000011920929,3.009999990463257
1743758142.67,0.9100000262260437,0.49000000953674316,2.940000057220459
1743758142.67,0.49000000953674316,0.699999988079071,2.870000123977661
1743758142.67,0.21000000834465027,-0.7699999809265137,2.5199999809265137
1743758142.67,-0.5600000023841858,-2.0299999713897705,2.5899999141693115
1743758142.743,-0.6299999952316284,-1.8899999856948853,2.240000009536743
1743758142.743,0.07000000029802322,-1.399999976158142,2.1700000762939453
1743758142.743,-0.2800000011920929,-0.3499999940395355,1.4700000286102295
1743758142.743,-0.42000001668930054,-0.14000000059604645,1.5399999618530273
1743758142.816,-0.6299999952316284,-1.3300000429153442,1.8899999856948853
1743758142.816,-0.5600000023841858,-1.8899999856948853,1.6800000667572021
1743758142.816,-0.07000000029802322,-1.6100000143051147,1.4700000286102295
1743758142.816,-0.07000000029802322,0.07000000029802322,1.6100000143051147
1743758142.889,0.14000000059604645,-0.3499999940395355,1.9600000381469727
1743758142.889,-0.14000000059604645,-2.1700000762939453,0.8400000333786011
1743758142.889,-0.6299999952316284,-3.7100000381469727,-0.21000000834465027
1743758142.889,-0.2800000011920929,-2.940000057220459,-0.3499999940395355
1743758142.962,0.5600000023841858,-1.190000057220459,0
1743758142.962,0.3499999940395355,0,0.3499999940395355
1743758142.962,0.3499999940395355,0.07000000029802322,0.9800000190734863
1743758142.962,0.42000001668930054,-0.3499999940395355,1.0499999523162842
1743758143.035,0.21000000834465027,-1.399999976158142,1.190000057220459
1743758143.035,-0.9100000262260437,-1.399999976158142,2.0299999713897705
1743758143.035,-0.42000001668930054,-0.3499999940395355,2.0299999713897705
1743758143.035,0.2800000011920929,-0.2800000011920929,1.2599999904632568
1743758143.108,-0.14000000059604645,-0.8400000333786011,0.07000000029802322
1743758143.108,0.6299999952316284,-2.240000009536743,0.07000000029802322
1743758143.108,-0.21000000834465027,-1.3300000429153442,-0.07000000029802322
1743758143.108,0.21000000834465027,-0.5600000023841858,0.21000000834465027
1743758143.181,0.42000001668930054,-0.14000000059604645,-0.14000000059604645
1743758143.181,0.3499999940395355,-0.8400000333786011,-0.07000000029802322
1743758143.181,0.5600000023841858,-1.4700000286102295,0.07000000029802322
1743758143.181,-0.07000000029802322,-2.240000009536743,0.49000000953674316
1743758143.254,-0.8400000333786011,-1.6100000143051147,0.21000000834465027
1743758143.254,0.3499999940395355,-0.7699999809265137,0.21000000834465027
1743758143.254,1.0499999523162842,-0.14000000059604645,0.07000000029802322
1743758143.254,0.5600000023841858,-1.2599999904632568,0.14000000059604645
1743758143.327,-0.49000000953674316,-2.0999999046325684,-0.14000000059604645
1743758143.327,-0.5600000023841858,-2.1700000762939453,-0.07000000029802322
1743758143.327,0.07000000029802322,-2.1700000762939453,0.07000000029802322
1743758143.327,-0.2800000011920929,-2.5199999809265137,-0.21000000834465027
1743758143.4,-0.2800000011920929,-3.009999990463257,0
1743758143.4,-0.42000001668930054,-1.9600000381469727,0.2800000011920929
1743758143.4,-1.3300000429153442,-1.75,1.1200000047683716
1743758143.4,-1.9600000381469727,-3.640000104904175,0.42000001668930054
1743758143.473,-2.7300000190734863,-4.269999980926514,0.7699999809265137
1743758143.473,-2.0999999046325684,-2.6600000858306885,1.2599999904632568
1743758143.473,-1.190000057220459,-0.9800000190734863,1.5399999618530273
1743758143.473,-0.2800000011920929,-1.1200000047683716,1.2599999904632568
1743758143.546,-0.5600000023841858,-2.0999999046325684,0.7699999809265137
1743758143.546,-0.6299999952316284,-2.6600000858306885,0.2800000011920929
1743758143.546,-0.3499999940395355,-2.1700000762939453,0.49000000953674316
1743758143.546,0.6299999952316284,-1.4700000286102295,0.7699999809265137
1743758143.619,1.190000057220459,-2.0999999046325684,0.7699999809265137
1743758143.619,0.9100000262260437,-2.940000057220459,0.699999988079071
1743758143.619,0.6299999952316284,-2.0299999713897705,0.6299999952316284
1743758143.619,2.1700000762939453,-2.799999952316284,0.9100000262260437
1743758143.692,1.5399999618530273,-1.4700000286102295,1.3300000429153442
1743758143.692,2.380000114440918,-2.240000009536743,1.0499999523162842
1743758143.692,0.699999988079071,-2.240000009536743,0.6299999952316284
1743758143.692,0.5600000023841858,-2.5899999141693115,0.9100000262260437
1743758143.765,1.190000057220459,-2.5899999141693115,1.0499999523162842
1743758143.765,0.7699999809265137,-1.6100000143051147,0.9100000262260437
1743758143.765,0.8400000333786011,-1.5399999618530273,1.8200000524520874
1743758143.765,-0.07000000029802322,-2.0299999713897705,2.0299999713897705
1743758143.838,0.6299999952316284,-2.240000009536743,1.3300000429153442
1743758143.838,-0.07000000029802322,-2.0299999713897705,0.8400000333786011
1743758143.838,-0.3499999940395355,-1.190000057220459,1.0499999523162842
1743758143.838,0.42000001668930054,-1.8200000524520874,1.9600000381469727
1743758143.911,0.42000001668930054,-1.8200000524520874,1.190000057220459
1743758143.911,1.1200000047683716,-3.430000066757202,0.9100000262260437
1743758143.911,0.9100000262260437,-2.799999952316284,0.699999988079071
1743758143.911,1.1200000047683716,-2.380000114440918,1.9600000381469727
1743758143.984,1.190000057220459,-1.0499999523162842,2.309999942779541
1743758143.984,1.0499999523162842,-1.1200000047683716,2.380000114440918
1743758143.984,0.9800000190734863,-2.0299999713897705,2.6600000858306885
1743758143.984,0.9100000262260437,-3.5,2.240000009536743
1743758144.057,-0.2800000011920929,-3.2899999618530273,1.8200000524520874
1743758144.057,0,-2.5899999141693115,2.380000114440918
1743758144.057,1.2599999904632568,-1.3300000429153442,2.450000047683716
1743758144.057,1.1200000047683716,-0.9800000190734863,3.009999990463257
1743758144.13,-0.6299999952316284,-0.49000000953674316,2.5199999809265137
1743758144.13,-0.49000000953674316,-1.6800000667572021,2.7300000190734863
1743758144.13,-0.2800000011920929,-2.1700000762939453,2.309999942779541
1743758144.13,-0.9800000190734863,-3.8499999046325684,2.940000057220459
1743758144.203,-1.4700000286102295,-2.940000057220459,1.9600000381469727
1743758144.203,-0.8400000333786011,-2.5899999141693115,1.3300000429153442
1743758144.203,-0.5600000023841858,-1.399999976158142,0.7699999809265137
1743758144.203,-0.6299999952316284,-0.9800000190734863,0.42000001668930054
1743758144.276,-0.07000000029802322,0.14000000059604645,0.2800000011920929
1743758144.276,-0.3499999940395355,0.9100000262260437,0.3499999940395355
1743758144.276,-0.49000000953674316,1.0499999523162842,0.2800000011920929
1743758144.276,-0.6299999952316284,1.190000057220459,0
1743758144.349,-0.5600000023841858,0.7699999809265137,-0.2800000011920929
1743758144.349,-0.5600000023841858,0.42000001668930054,-0.7699999809265137
1743758144.349,-0.21000000834465027,0.07000000029802322,-0.49000000953674316
1743758144.349,-0.49000000953674316,0.6299999952316284,-0.2800000011920929
1743758144.422,-0.3499999940395355,1.3300000429153442,-0.49000000953674316
1743758144.422,0.2800000011920929,1.3300000429153442,0.07000000029802322
1743758144.422,0.2800000011920929,0.21000000834465027,0.21000000834465027
1743758144.422,-1.1200000047683716,0.5600000023841858,-0.49000000953674316
1743758144.495,-0.07000000029802322,1.1200000047683716,-0.5600000023841858
1743758144.495,0.5600000023841858,0.8400000333786011,-0.699999988079071
1743758144.495,0.3499999940395355,-0.3499999940395355,-1.2599999904632568
1743758144.495,-0.14000000059604645,-0.14000000059604645,-1.4700000286102295
1743758144.568,0.3499999940395355,0.699999988079071,-1.0499999523162842
1743758144.568,0.6299999952316284,0.21000000834465027,-1.3300000429153442
1743758144.568,0.2800000011920929,-1.2599999904632568,-2.0999999046325684
1743758144.568,0.21000000834465027,-0.07000000029802322,-1.9600000381469727
1743758144.641,0.8400000333786011,0.8400000333786011,-0.7699999809265137
1743758144.641,0.6299999952316284,0,-0.699999988079071
1743758144.641,-0.6299999952316284,-0.6299999952316284,-0.5600000023841858
1743758144.641,-0.2800000011920929,-0.8400000333786011,-0.2800000011920929
1743758144.714,0.49000000953674316,-0.6299999952316284,-0.42000001668930054
1743758144.714,0.699999988079071,-0.9100000262260437,-0.699999988079071
1743758144.714,1.2599999904632568,-2.240000009536743,-1.8899999856948853
1743758144.714,1.1200000047683716,-2.5199999809265137,-2.1700000762939453
1743758144.787,1.399999976158142,-0.699999988079071,-1.3300000429153442
1743758144.787,2.0299999713897705,0.3499999940395355,-0.14000000059604645
1743758144.787,1.3300000429153442,-0.3499999940395355,0
1743758144.787,0,-1.8899999856948853,0.21000000834465027
1743758144.86,-0.14000000059604645,-2.0999999046325684,0.5600000023841858
1743758144.86,0.2800000011920929,-0.699999988079071,1.75
1743758144.86,0.699999988079071,-0.42000001668930054,1.75
1743758144.86,-0.21000000834465027,-0.9100000262260437,0.6299999952316284
1743758144.933,-0.7699999809265137,-1.5399999618530273,0.2800000011920929
1743758144.933,-0.6299999952316284,-0.9100000262260437,1.3300000429153442
1743758144.933,-0.6299999952316284,-0.8400000333786011,1.75
1743758144.933,-0.8400000333786011,-2.0299999713897705,1.1200000047683716
1743758145.006,-1.6100000143051147,-2.309999942779541,0.49000000953674316
1743758145.006,-0.8400000333786011,-2.0999999046325684,0.5600000023841858
1743758145.006,-0.21000000834465027,0.14000000059604645,0.42000001668930054
1743758145.006,0.42000001668930054,0,0.9100000262260437
1743758145.079,-0.2800000011920929,-0.49000000953674316,0.07000000029802322
1743758145.079,-0.699999988079071,-1.0499999523162842,0.699999988079071
1743758145.079,-1.1200000047683716,-0.07000000029802322,1.6800000667572021
1743758145.079,-0.6299999952316284,0.07000000029802322,1.399999976158142
1743758145.152,0.21000000834465027,-0.49000000953674316,0.2800000011920929
1743758145.152,0.8400000333786011,-0.8400000333786011,-1.8200000524520874
1743758145.152,0.6299999952316284,0.699999988079071,-2.7300000190734863
1743758145.152,0.9800000190734863,1.5399999618530273,-1.9600000381469727
1743758145.225,0,-0.8400000333786011,-1.2599999904632568
1743758145.225,-2.0299999713897705,-6.860000133514404,-0.14000000059604645
1743758145.225,-3.569999933242798,-9.9399995803833,-0.07000000029802322
1743758145.225,-3.430000066757202,-10.289999961853027,0.5600000023841858
1743758145.298,-1.6100000143051147,-6.019999980926514,-0.07000000029802322
1743758145.298,-0.21000000834465027,-1.5399999618530273,-0.14000000059604645
1743758145.298,1.2599999904632568,0.8400000333786011,-0.07000000029802322
1743758145.298,1.399999976158142,-0.14000000059604645,0.3499999940395355
1743758145.371,0.07000000029802322,-2.0299999713897705,0.07000000029802322
1743758145.371,0.07000000029802322,-2.7300000190734863,0.07000000029802322
1743758145.371,0.49000000953674316,-1.6800000667572021,0.7699999809265137
1743758145.371,0.3499999940395355,-0.5600000023841858,2.0299999713897705
1743758145.444,0.5600000023841858,-0.7699999809265137,2.5899999141693115
1743758145.444,-0.42000001668930054,-1.0499999523162842,2.380000114440918
1743758145.444,-0.5600000023841858,-0.3499999940395355,2.6600000858306885
1743758145.444,0.6299999952316284,1.3300000429153442,2.6600000858306885
1743758145.517,1.399999976158142,1.1200000047683716,1.9600000381469727
1743758145.517,1.190000057220459,-1.3300000429153442,0.9800000190734863
1743758145.517,1.1200000047683716,-2.870000123977661,0.14000000059604645
1743758145.517,1.4700000286102295,-1.8200000524520874,0.42000001668930054
1743758145.59,1.5399999618530273,-0.2800000011920929,1.9600000381469727
1743758145.59,1.6800000667572021,1.3300000429153442,2.0299999713897705
1743758145.59,1.190000057220459,0.6299999952316284,1.4700000286102295
1743758145.59,0,-0.699999988079071,0.699999988079071
1743758145.663,-0.14000000059604645,-1.8200000524520874,0.6299999952316284
1743758145.663,-0.8400000333786011,-1.8899999856948853,0.699999988079071
1743758145.663,-1.1200000047683716,-0.7699999809265137,0.699999988079071
1743758145.663,-0.6299999952316284,0.699999988079071,1.0499999523162842
1743758145.736,-0.699999988079071,0.49000000953674316,0.9100000262260437
1743758145.736,-0.7699999809265137,-1.3300000429153442,0.07000000029802322
1743758145.736,-1.1200000047683716,-1.6100000143051147,-0.42000001668930054
1743758145.736,-0.7699999809265137,-1.2599999904632568,-0.14000000059604645
1743758145.809,-0.9800000190734863,-0.6299999952316284,0.5600000023841858
1743758145.809,-0.8400000333786011,-0.699999988079071,1.399999976158142
1743758145.809,-1.5399999618530273,0.2800000011920929,4.059999942779541
1743758145.809,-2.5899999141693115,1.9600000381469727,4.480000019073486
1743758145.882,-0.3499999940395355,0.699999988079071,3.2899999618530273
1743758145.882,0.9100000262260437,0.07000000029802322,0.42000001668930054
1743758145.882,1.75,-0.7699999809265137,-2.7300000190734863
1743758145.882,2.0299999713897705,0.699999988079071,-3.990000009536743
1743758145.955,1.2599999904632568,2.0999999046325684,-2.870000123977661
1743758145.955,-1.5399999618530273,-1.399999976158142,-2.0299999713897705
1743758145.955,-5.460000038146973,-7.699999809265137,0.3499999940395355
1743758145.955,-7.210000038146973,-10.289999961853027,2.380000114440918
1743758146.028,-7.139999866485596,-7.909999847412109,2.940000057220459
1743758146.028,-5.670000076293945,0,2.5199999809265137
1743758146.028,-3.0799999237060547,4.96999979019165,2.799999952316284
1743758146.028,-2.870000123977661,4.409999847412109,3.009999990463257
1743758146.101,-3.8499999046325684,2.870000123977661,1.6100000143051147
1743758146.101,-3.5,1.3300000429153442,0.6299999952316284
1743758146.101,-2.7300000190734863,0.9100000262260437,0.14000000059604645
1743758146.101,-2.0299999713897705,0.42000001668930054,0.49000000953674316
1743758146.174,-1.399999976158142,0.9800000190734863,3.1500000953674316
1743758146.174,-1.8200000524520874,3.0799999237060547,6.369999885559082
1743758146.174,-2.0299999713897705,2.450000047683716,6.230000019073486
1743758146.174,0.07000000029802322,0.699999988079071,4.340000152587891
1743758146.247,3.569999933242798,-0.5600000023841858,1.6800000667572021
1743758146.247,4.690000057220459,0.5600000023841858,-0.14000000059604645
1743758146.247,6.159999847412109,3.5,-0.2800000011920929
1743758146.247,6.929999828338623,2.5199999809265137,0.14000000059604645
1743758146.32,3.0799999237060547,-3.2899999618530273,0.699999988079071
1743758146.32,-0.21000000834465027,-8.75,1.75
1743758146.32,-0.9800000190734863,-8.75,2.870000123977661
1743758146.32,-1.4700000286102295,-4.059999942779541,3.7799999713897705
1743758146.393,0,0.8400000333786011,3.640000104904175
1743758146.393,1.8200000524520874,1.6800000667572021,2.799999952316284
1743758146.393,0.21000000834465027,0.42000001668930054,1.6100000143051147
1743758146.393,-1.3300000429153442,-0.3499999940395355,0.8400000333786011
1743758146.466,-1.3300000429153442,-0.14000000059604645,-0.07000000029802322
1743758146.466,-2.0299999713897705,-0.07000000029802322,-0.6299999952316284
1743758146.466,-2.7300000190734863,1.1200000047683716,-0.2800000011920929
1743758146.466,-2.5899999141693115,2.0999999046325684,0.699999988079071
1743758146.539,-2.1700000762939453,1.9600000381469727,0.49000000953674316
1743758146.539,-1.6100000143051147,0.14000000059604645,-0.42000001668930054
1743758146.539,-1.3300000429153442,0.699999988079071,-0.21000000834465027
1743758146.539,1.2599999904632568,3.8499999046325684,0.6299999952316284
1743758146.612,3.569999933242798,4.96999979019165,1.8200000524520874
1743758146.612,3.7100000381469727,2.799999952316284,2.940000057220459
1743758146.612,2.7300000190734863,0,3.569999933242798
1743758146.612,2.870000123977661,-0.7699999809265137,4.199999809265137
1743758146.685,3.2899999618530273,-0.21000000834465027,4.480000019073486
1743758146.685,2.309999942779541,-1.0499999523162842,4.550000190734863
1743758146.685,0.5600000023841858,-2.6600000858306885,3.569999933242798
1743758146.685,-0.21000000834465027,-3.640000104904175,2.6600000858306885
1743758146.758,0.49000000953674316,-4.760000228881836,1.75
1743758146.758,0.8400000333786011,-4.900000095367432,0.5600000023841858
1743758146.758,1.190000057220459,-4.900000095367432,0.49000000953674316
1743758146.758,1.2599999904632568,-3.7799999713897705,0.699999988079071
1743758146.831,2.240000009536743,-3.1500000953674316,1.75
1743758146.831,2.7300000190734863,-3.009999990463257,2.1700000762939453
1743758146.831,2.870000123977661,-3.2200000286102295,2.0299999713897705
1743758146.831,3.3600001335144043,-4.269999980926514,1.8899999856948853
1743758146.904,3.7799999713897705,-5.740000247955322,1.6800000667572021
1743758146.904,3.9200000762939453,-6.159999847412109,1.75
1743758146.904,5.179999828338623,-5.389999866485596,1.6100000143051147
1743758146.904,6.510000228881836,-4.619999885559082,1.399999976158142
1743758146.977,6.789999961853027,-4.96999979019165,1.75
1743758146.977,5.670000076293945,-5.880000114440918,2.799999952316284
1743758146.977,5.179999828338623,-5.389999866485596,2.940000057220459
1743758146.977,5.460000038146973,-5.110000133514404,3.1500000953674316
1743758147.05,4.269999980926514,-4.96999979019165,2.5899999141693115
1743758147.05,3.640000104904175,-4.829999923706055,1.190000057220459
1743758147.05,3.7799999713897705,-4.199999809265137,0.3499999940395355
1743758147.05,3.640000104904175,-4.199999809265137,-0.07000000029802322
1743758147.123,3.2200000286102295,-4.96999979019165,-1.1200000047683716
1743758147.123,2.5899999141693115,-6.090000152587891,-1.8899999856948853
1743758147.123,2.5199999809265137,-5.740000247955322,-1.9600000381469727
1743758147.123,2.7300000190734863,-4.760000228881836,-1.9600000381469727
1743758147.196,3.0799999237060547,-3.7799999713897705,-1.75
1743758147.196,2.940000057220459,-3.0799999237060547,-1.8200000524520874
1743758147.196,1.8899999856948853,-2.0999999046325684,-1.6100000143051147
1743758147.196,1.9600000381469727,-0.49000000953674316,-1.399999976158142
1743758147.269,2.0999999046325684,0.14000000059604645,-1.190000057220459
1743758147.269,1.0499999523162842,0.14000000059604645,-1.1200000047683716
1743758147.269,0.07000000029802322,0.42000001668930054,-0.9100000262260437
1743758147.269,-0.9800000190734863,1.4700000286102295,0.3499999940395355
1743758147.342,-2.5899999141693115,3.009999990463257,0.6299999952316284
1743758147.342,-4.550000190734863,3.7799999713897705,0
1743758147.342,-6.090000152587891,1.399999976158142,-1.190000057220459
1743758147.342,-8.1899995803833,-0.9100000262260437,-2.5199999809265137
1743758147.415,-8.890000343322754,-1.6100000143051147,-2.5899999141693115
1743758147.415,-8.329999923706055,-0.9800000190734863,-3.1500000953674316
1743758147.415,-7.699999809265137,-2.0299999713897705,-4.619999885559082
1743758147.415,-7.070000171661377,-3.7799999713897705,-5.25
1743758147.488,-6.720000267028809,-2.6600000858306885,-3.640000104904175
1743758147.488,-5.179999828338623,-1.1200000047683716,-1.5399999618530273
1743758147.488,-3.430000066757202,-2.240000009536743,-1.190000057220459
1743758147.488,-2.309999942779541,-4.760000228881836,-1.3300000429153442
1743758147.561,-0.9800000190734863,-4.269999980926514,-0.5600000023841858
1743758147.561,2.309999942779541,-3.009999990463257,0.2800000011920929
1743758147.561,3.0799999237060547,-2.240000009536743,0.699999988079071
1743758147.561,2.799999952316284,-1.6800000667572021,1.3300000429153442
1743758147.634,4.829999923706055,-0.9800000190734863,2.450000047683716
1743758147.634,6.090000152587891,0,2.799999952316284
1743758147.634,5.53000020980835,-1.5399999618530273,2.5199999809265137
1743758147.634,5.389999866485596,-3.0799999237060547,1.8200000524520874
1743758147.707,5.25,-2.0299999713897705,1.6100000143051147
1743758147.707,5.740000247955322,-1.8899999856948853,1.190000057220459
1743758147.707,4.96999979019165,-3.0799999237060547,0.2800000011920929
1743758147.707,3.5,-4.340000152587891,0
1743758147.78,3.0799999237060547,-4.96999979019165,0.699999988079071
1743758147.78,1.9600000381469727,-4.550000190734863,1.3300000429153442
1743758147.78,1.190000057220459,-3.7799999713897705,1.399999976158142
1743758147.78,2.1700000762939453,-4.480000019073486,1.5399999618530273
1743758147.853,2.0999999046325684,-6.090000152587891,1.8899999856948853
1743758147.853,1.8200000524520874,-5.389999866485596,1.9600000381469727
1743758147.853,2.5899999141693115,-3.0799999237060547,2.380000114440918
1743758147.853,3.5,-1.9600000381469727,3.2200000286102295
1743758147.926,3.7100000381469727,-3.5,3.7799999713897705
1743758147.926,2.799999952316284,-3.7100000381469727,3.569999933242798
1743758147.926,2.940000057220459,-3.3600001335144043,4.409999847412109
1743758147.926,3.430000066757202,-1.8200000524520874,4.829999923706055
1743758147.999,4.199999809265137,-1.1200000047683716,5.179999828338623
1743758147.999,4.269999980926514,-1.1200000047683716,4.409999847412109
1743758147.999,3.7799999713897705,-1.5399999618530273,4.340000152587891
1743758147.999,4.199999809265137,-2.240000009536743,3.7799999713897705
1743758148.072,4.059999942779541,-3.0799999237060547,3.430000066757202
1743758148.072,3.2200000286102295,-2.0999999046325684,3.2200000286102295
1743758148.072,3.3600001335144043,-1.1200000047683716,3.7799999713897705
1743758148.072,2.870000123977661,-1.4700000286102295,3.9200000762939453
1743758148.145,1.9600000381469727,-2.870000123977661,3.1500000953674316
1743758148.145,2.380000114440918,-3.640000104904175,2.450000047683716
1743758148.145,2.240000009536743,-3.7100000381469727,1.6800000667572021
1743758148.145,2.1700000762939453,-4.619999885559082,1.6800000667572021
1743758148.218,2.240000009536743,-4.409999847412109,1.6100000143051147
1743758148.218,2.799999952316284,-2.5899999141693115,1.6800000667572021
1743758148.218,3.3600001335144043,-1.8200000524520874,2.380000114440918
1743758148.218,3.430000066757202,-2.6600000858306885,2.1700000762939453
1743758148.291,2.1700000762939453,-2.870000123977661,2.7300000190734863
1743758148.291,2.940000057220459,-2.799999952316284,2.6600000858306885
1743758148.291,4.480000019073486,-2.450000047683716,2.380000114440918
1743758148.291,4.690000057220459,-2.0999999046325684,2.0299999713897705
1743758148.364,4.690000057220459,-2.799999952316284,1.6100000143051147
1743758148.364,4.409999847412109,-3.2899999618530273,1.75
1743758148.364,5.320000171661377,-4.130000114440918,1.1200000047683716
1743758148.364,5.179999828338623,-4.480000019073486,0.07000000029802322
1743758148.437,4.269999980926514,-3.640000104904175,-0.49000000953674316
1743758148.437,5.039999961853027,-2.5899999141693115,-0.699999988079071
1743758148.437,5.179999828338623,-2.7300000190734863,-0.6299999952316284
1743758148.437,2.7300000190734863,-3.5,-0.42000001668930054
1743758148.51,0.9100000262260437,-2.1700000762939453,-0.42000001668930054
1743758148.51,0,-0.14000000059604645,0.21000000834465027
1743758148.51,-1.1200000047683716,0.6299999952316284,0.49000000953674316
1743758148.51,-1.5399999618530273,0.699999988079071,0.49000000953674316
1743758148.583,-1.8200000524520874,1.0499999523162842,0.699999988079071
1743758148.583,-3.0799999237060547,2.1700000762939453,0.6299999952316284
1743758148.583,-3.1500000953674316,3.2200000286102295,0.699999988079071
1743758148.583,-2.7300000190734863,3.2200000286102295,1.1200000047683716
1743758148.656,-3.5,2.450000047683716,0.5600000023841858
1743758148.656,-3.8499999046325684,1.6800000667572021,0.7699999809265137
1743758148.656,-3.1500000953674316,2.309999942779541,1.4700000286102295
1743758148.656,-2.450000047683716,2.0999999046325684,0.9800000190734863
1743758148.729,-3.0799999237060547,1.399999976158142,-0.2800000011920929
1743758148.729,-2.1700000762939453,0.49000000953674316,-0.2800000011920929
1743758148.729,-1.190000057220459,2.5199999809265137,0.42000001668930054
1743758148.729,-0.5600000023841858,3.7799999713897705,0.21000000834465027
1743758148.802,-1.1200000047683716,1.75,-0.5600000023841858
1743758148.802,-1.8200000524520874,0.5600000023841858,-1.75
1743758148.802,-0.6299999952316284,1.5399999618530273,-2.309999942779541
1743758148.802,-0.07000000029802322,1.190000057220459,-1.4700000286102295
1743758148.875,-1.5399999618530273,0.7699999809265137,-2.0299999713897705
1743758148.875,-2.0299999713897705,1.399999976158142,-3.2200000286102295
1743758148.875,-1.190000057220459,1.190000057220459,-3.9200000762939453
1743758148.875,-2.1700000762939453,1.190000057220459,-4.269999980926514
1743758148.948,-3.2899999618530273,0.8400000333786011,-5.179999828338623
1743758148.948,-3.7799999713897705,3.2200000286102295,-9.800000190734863
1743758148.948,-4.409999847412109,6.929999828338623,-15.119999885559082
1743758148.948,-4.550000190734863,15.190000534057617,-24.010000228881836
1743758149.021,-3.2200000286102295,14.140000343322754,-32.689998626708984
1743758149.021,-5.389999866485596,6.929999828338623,-33.11000061035156
1743758149.021,-8.050000190734863,7.840000152587891,-26.530000686645508
1743758149.021,-4.690000057220459,8.399999618530273,-13.649999618530273
1743758149.094,-2.1700000762939453,6.789999961853027,-6.159999847412109
1743758149.094,-3.9200000762939453,3.990000009536743,-6.369999885559082
1743758149.094,-8.890000343322754,0.2800000011920929,-6.510000228881836
1743758149.094,-9.9399995803833,1.3300000429153442,-7.909999847412109
1743758149.167,-4.900000095367432,0.6299999952316284,-5.809999942779541
1743758149.167,-5.670000076293945,-2.870000123977661,-5.880000114440918
1743758149.167,-3.2200000286102295,0.42000001668930054,-9.9399995803833
1743758149.167,2.6600000858306885,-0.9800000190734863,-9.9399995803833
1743758149.24,-0.8400000333786011,-0.9100000262260437,-2.5199999809265137
1743758149.24,1.190000057220459,0.9100000262260437,2.6600000858306885
1743758149.24,2.309999942779541,-0.9800000190734863,5.809999942779541
1743758149.24,1.4700000286102295,-4.199999809265137,8.819999694824219
1743758149.313,3.3600001335144043,-3.640000104904175,6.510000228881836
1743758149.313,3.7100000381469727,-1.8200000524520874,2.7300000190734863
1743758149.313,1.4700000286102295,0.5600000023841858,-0.21000000834465027
1743758149.313,2.309999942779541,1.8200000524520874,-1.1200000047683716
1743758149.386,3.3600001335144043,0.699999988079071,0.9100000262260437
1743758149.386,2.240000009536743,-0.3499999940395355,1.9600000381469727
1743758149.386,2.0299999713897705,-2.799999952316284,2.5899999141693115
1743758149.386,0.2800000011920929,-4.619999885559082,4.199999809265137
1743758149.459,0.8400000333786011,-5.599999904632568,7.139999866485596
1743758149.459,2.5199999809265137,-5.25,6.650000095367432
1743758149.459,0.699999988079071,-2.940000057220459,2.0299999713897705
1743758149.459,-0.5600000023841858,-1.4700000286102295,1.1200000047683716
1743758149.532,0.3499999940395355,0.14000000059604645,2.0299999713897705
1743758149.532,1.399999976158142,1.4700000286102295,3.430000066757202
1743758149.532,0.7699999809265137,0.9100000262260437,4.130000114440918
1743758149.532,0.21000000834465027,-1.399999976158142,5.460000038146973
1743758149.605,0.7699999809265137,-2.6600000858306885,6.440000057220459
1743758149.605,0.9800000190734863,-3.5,7
1743758149.605,0.5600000023841858,-1.5399999618530273,3.569999933242798
1743758149.605,0.699999988079071,0.14000000059604645,2.0299999713897705
1743758149.678,2.940000057220459,-1.6800000667572021,2.1700000762939453
1743758149.678,3.569999933242798,-2.870000123977661,1.2599999904632568
1743758149.678,4.409999847412109,-5.880000114440918,0.3499999940395355
1743758149.678,5.949999809265137,-5.809999942779541,-0.9100000262260437
1743758149.751,7.980000019073486,-5.320000171661377,0.3499999940395355
1743758149.751,7.980000019073486,-4.130000114440918,2.309999942779541
1743758149.751,7.139999866485596,-3.9200000762939453,2.870000123977661
1743758149.751,7.349999904632568,-4.900000095367432,2.940000057220459
1743758149.824,6.789999961853027,-4.199999809265137,3.7799999713897705
1743758149.824,7.210000038146973,-4.199999809265137,4.409999847412109
1743758149.824,4.760000228881836,-3.1500000953674316,5.110000133514404
1743758149.824,4.130000114440918,-3.009999990463257,4.96999979019165
1743758149.897,4.550000190734863,-2.1700000762939453,4.96999979019165
1743758149.897,3.9200000762939453,-1.399999976158142,5.460000038146973
1743758149.897,3.2899999618530273,-0.8400000333786011,5.179999828338623
1743758149.897,1.399999976158142,-0.8400000333786011,6.230000019073486
1743758149.97,1.8200000524520874,-2.0299999713897705,6.720000267028809
1743758149.97,2.0999999046325684,-4.269999980926514,7
1743758149.97,0.699999988079071,-3.1500000953674316,4.340000152587891
1743758149.97,2.240000009536743,-2.0299999713897705,3.9200000762939453
1743758150.043,3.569999933242798,-2.0999999046325684,2.6600000858306885
1743758150.043,2.5899999141693115,-2.380000114440918,3.0799999237060547
1743758150.043,3.7100000381469727,-0.699999988079071,2.380000114440918
1743758150.043,4.340000152587891,-1.5399999618530273,2.0999999046325684
1743758150.116,2.799999952316284,-2.870000123977661,1.1200000047683716
1743758150.116,2.0299999713897705,-4.199999809265137,0.07000000029802322
1743758150.116,1.8899999856948853,-4.409999847412109,1.1200000047683716
1743758150.116,2.940000057220459,-3.990000009536743,-0.21000000834465027
1743758150.189,3.1500000953674316,-3.640000104904175,-0.3499999940395355
1743758150.189,2.940000057220459,-3.1500000953674316,-1.190000057220459
1743758150.189,2.6600000858306885,-3.9200000762939453,-2.450000047683716
1743758150.189,2.1700000762939453,-3.3600001335144043,-2.380000114440918
1743758150.262,3.3600001335144043,-3.8499999046325684,-1.9600000381469727
1743758150.262,1.6100000143051147,-3.5,-1.399999976158142
1743758150.262,1.8899999856948853,-2.799999952316284,-1.75
1743758150.262,1.8899999856948853,-2.0299999713897705,-1.0499999523162842
1743758150.335,1.6100000143051147,0,-1.0499999523162842
1743758150.335,1.399999976158142,0.6299999952316284,-1.5399999618530273
1743758150.335,0.42000001668930054,0.42000001668930054,-1.3300000429153442
1743758150.335,0.9800000190734863,-1.2599999904632568,-2.309999942779541
1743758150.408,0.3499999940395355,-1.190000057220459,-2.309999942779541
1743758150.408,0.49000000953674316,0.21000000834465027,-2.1700000762939453
1743758150.408,0.7699999809265137,0.5600000023841858,-1.190000057220459
1743758150.408,0.6299999952316284,0.8400000333786011,-1.399999976158142
1743758150.481,0.49000000953674316,-0.07000000029802322,-1.0499999523162842
1743758150.481,-0.3499999940395355,-0.21000000834465027,-1.1200000047683716
1743758150.481,-0.7699999809265137,-0.42000001668930054,-0.5600000023841858
1743758150.481,-0.42000001668930054,-0.21000000834465027,-0.42000001668930054
1743758150.554,0.2800000011920929,-0.14000000059604645,-1.190000057220459
1743758150.554,0.21000000834465027,0.42000001668930054,-2.0299999713897705
1743758150.554,1.1200000047683716,0.8400000333786011,-2.0299999713897705
1743758150.554,0.8400000333786011,1.6100000143051147,-2.7300000190734863
1743758150.627,0.7699999809265137,0.3499999940395355,-2.6600000858306885
1743758150.627,0.6299999952316284,-1.0499999523162842,-2.1700000762939453
1743758150.627,0.7699999809265137,-2.5199999809265137,-1.8899999856948853
1743758150.627,-0.49000000953674316,-2.380000114440918,-2.6600000858306885
1743758150.7,-1.1200000047683716,-0.9800000190734863,-2.870000123977661
1743758150.7,-0.21000000834465027,-0.42000001668930054,-1.8200000524520874
1743758150.7,0.14000000059604645,-1.5399999618530273,-1.1200000047683716
1743758150.7,-1.8200000524520874,-2.0299999713897705,-0.699999988079071
1743758150.773,-0.9100000262260437,-2.0299999713897705,-0.07000000029802322
1743758150.773,-0.49000000953674316,-0.42000001668930054,-0.21000000834465027
1743758150.773,-1.399999976158142,-0.21000000834465027,0.14000000059604645
1743758150.773,-1.6800000667572021,-1.190000057220459,0.21000000834465027
1743758150.846,-1.8899999856948853,-0.7699999809265137,-0.3499999940395355
1743758150.846,-1.6100000143051147,0.9100000262260437,-0.42000001668930054
1743758150.846,-0.07000000029802322,1.8899999856948853,0.2800000011920929
1743758150.846,0.5600000023841858,1.6800000667572021,0.49000000953674316
1743758150.919,-0.14000000059604645,0.49000000953674316,0.14000000059604645
1743758150.919,-0.6299999952316284,-0.21000000834465027,-0.2800000011920929
1743758150.919,-0.2800000011920929,0.2800000011920929,-0.21000000834465027
1743758150.919,0.8400000333786011,1.3300000429153442,0.7699999809265137
1743758150.992,1.4700000286102295,1.190000057220459,1.1200000047683716
1743758150.992,0.49000000953674316,1.3300000429153442,0.14000000059604645
1743758150.992,0.3499999940395355,0.699999988079071,0
1743758150.992,1.190000057220459,-0.49000000953674316,0.14000000059604645
1743758151.065,0.6299999952316284,-1.5399999618530273,0.42000001668930054
1743758151.065,0.6299999952316284,-1.399999976158142,0.9800000190734863
1743758151.065,0.8400000333786011,0.8400000333786011,0.9100000262260437
1743758151.065,0.9800000190734863,1.3300000429153442,1.6800000667572021
1743758151.138,1.2599999904632568,-0.14000000059604645,1.4700000286102295
1743758151.138,0.7699999809265137,-1.399999976158142,1.1200000047683716
1743758151.138,0,-0.21000000834465027,1.399999976158142
1743758151.138,0.9800000190734863,0.49000000953674316,1.8899999856948853
1743758151.211,0.9800000190734863,0.8400000333786011,2.6600000858306885
1743758151.211,1.3300000429153442,0.8400000333786011,1.8200000524520874
1743758151.211,0.6299999952316284,-0.21000000834465027,1.8200000524520874
1743758151.211,0,0.07000000029802322,1.190000057220459
1743758151.284,1.3300000429153442,-0.9800000190734863,-0.14000000059604645
1743758151.284,0.7699999809265137,-0.6299999952316284,-1.0499999523162842
1743758151.284,0.7699999809265137,-0.14000000059604645,-1.2599999904632568
1743758151.284,1.2599999904632568,-1.2599999904632568,-0.7699999809265137
1743758151.357,1.3300000429153442,-1.9600000381469727,-1.8899999856948853
1743758151.357,1.1200000047683716,-2.870000123977661,-2.5899999141693115
1743758151.357,1.2599999904632568,-1.1200000047683716,-2.309999942779541
1743758151.357,2.0299999713897705,-0.8400000333786011,-0.8400000333786011
1743758151.43,1.2599999904632568,-1.399999976158142,-0.8400000333786011
1743758151.43,0.07000000029802322,-1.190000057220459,-0.8400000333786011
1743758151.43,0.6299999952316284,-0.9800000190734863,-0.699999988079071
1743758151.43,0.699999988079071,-0.7699999809265137,-1.0499999523162842
1743758151.503,0.14000000059604645,-1.1200000047683716,-0.8400000333786011
1743758151.503,0.8400000333786011,-3.0799999237060547,-1.2599999904632568
1743758151.503,-0.6299999952316284,-1.8200000524520874,-1.190000057220459
1743758151.503,1.2599999904632568,-1.75,-0.7699999809265137
1743758151.576,0.5600000023841858,-0.42000001668930054,-0.699999988079071
1743758151.576,1.3300000429153442,-1.8200000524520874,-0.7699999809265137
1743758151.576,0.9100000262260437,-2.0999999046325684,-0.8400000333786011
1743758151.576,-0.21000000834465027,-1.8200000524520874,-0.2800000011920929
1743758151.649,0.07000000029802322,-1.5399999618530273,0.42000001668930054
1743758151.649,0.14000000059604645,-1.399999976158142,1.2599999904632568
1743758151.649,0.5600000023841858,-0.21000000834465027,0.9800000190734863
1743758151.649,0.699999988079071,-1.1200000047683716,1.1200000047683716
1743758151.722,-0.699999988079071,-1.9600000381469727,1.2599999904632568
1743758151.722,-0.49000000953674316,-2.5199999809265137,0.9800000190734863
1743758151.722,0.8400000333786011,-1.8899999856948853,1.3300000429153442
1743758151.722,0.7699999809265137,-1.8200000524520874,0.21000000834465027
1743758151.795,0.7699999809265137,-2.450000047683716,-0.42000001668930054
1743758151.795,0.9800000190734863,-2.5199999809265137,-0.49000000953674316
1743758151.795,1.0499999523162842,-2.450000047683716,0.21000000834465027
1743758151.795,0.2800000011920929,-2.1700000762939453,0.49000000953674316
1743758151.868,0.7699999809265137,-3.009999990463257,0.9800000190734863
1743758151.868,1.1200000047683716,-2.309999942779541,1.1200000047683716
1743758151.868,1.6100000143051147,-2.0299999713897705,1.6800000667572021
1743758151.868,1.399999976158142,-1.190000057220459,1.1200000047683716
1743758151.941,1.6100000143051147,-0.7699999809265137,0.9800000190734863
1743758151.941,1.8899999856948853,-1.190000057220459,1.190000057220459
1743758151.941,1.8200000524520874,-1.399999976158142,1.2599999904632568
1743758151.941,1.3300000429153442,-1.6800000667572021,1.190000057220459
1743758152.014,0.6299999952316284,-1.1200000047683716,1.4700000286102295
1743758152.014,0.8400000333786011,-1.6100000143051147,1.399999976158142
1743758152.014,0.5600000023841858,-1.399999976158142,1.8200000524520874
1743758152.014,0.7699999809265137,-0.3499999940395355,1.75
1743758152.087,0.8400000333786011,0.9100000262260437,1.8200000524520874
1743758152.087,0.2800000011920929,1.190000057220459,1.190000057220459
1743758152.087,-0.6299999952316284,0.699999988079071,0.6299999952316284
1743758152.087,-0.9100000262260437,0.2800000011920929,0.42000001668930054
1743758152.16,-0.3499999940395355,-0.2800000011920929,0.9800000190734863
1743758152.16,0.5600000023841858,-0.699999988079071,-0.14000000059604645
1743758152.16,-0.6299999952316284,-0.7699999809265137,1.399999976158142
1743758152.16,0.7699999809265137,1.3300000429153442,0.2800000011920929
1743758152.233,1.6800000667572021,0.21000000834465027,0.5600000023841858
1743758152.233,0.5600000023841858,-0.21000000834465027,0.07000000029802322
1743758152.233,0.7699999809265137,-0.9800000190734863,-0.699999988079071
1743758152.233,0.9800000190734863,-0.49000000953674316,-0.21000000834465027
1743758152.306,2.0999999046325684,0.2800000011920929,0.21000000834465027
1743758152.306,1.5399999618530273,0.3499999940395355,0.3499999940395355
1743758152.306,1.8200000524520874,-0.2800000011920929,0.3499999940395355
1743758152.306,1.6100000143051147,-0.49000000953674316,0.49000000953674316
1743758152.379,1.0499999523162842,-0.21000000834465027,0.5600000023841858
1743758152.379,1.6800000667572021,0.6299999952316284,0.49000000953674316
1743758152.379,2.0999999046325684,0.42000001668930054,0.2800000011920929
1743758152.379,1.0499999523162842,0.42000001668930054,0.699999988079071
1743758152.452,0.7699999809265137,0.9800000190734863,1.2599999904632568
1743758152.452,0.699999988079071,1.3300000429153442,1.3300000429153442
1743758152.452,0.3499999940395355,0.42000001668930054,1.0499999523162842
1743758152.452,-0.699999988079071,0.14000000059604645,0.9800000190734863
1743758152.525,-0.07000000029802322,-0.3499999940395355,1.75
1743758152.525,0.6299999952316284,-0.42000001668930054,1.1200000047683716
1743758152.525,0.9800000190734863,-0.7699999809265137,0.5600000023841858
1743758152.525,2.1700000762939453,-0.9800000190734863,0.21000000834465027
1743758152.598,2.240000009536743,-0.7699999809265137,0.7699999809265137
1743758152.598,2.0299999713897705,0.07000000029802322,0.7699999809265137
1743758152.598,1.8200000524520874,-0.14000000059604645,1.399999976158142
1743758152.598,1.6800000667572021,0.14000000059604645,2.0999999046325684
1743758152.671,2.380000114440918,0.699999988079071,2.1700000762939453
1743758152.671,2.380000114440918,0.2800000011920929,2.0299999713897705
1743758152.671,1.75,-0.5600000023841858,1.6100000143051147
1743758152.671,0.9800000190734863,-0.9800000190734863,1.5399999618530273
1743758152.744,1.5399999618530273,-0.6299999952316284,1.2599999904632568
1743758152.744,2.0299999713897705,0.21000000834465027,1.6800000667572021
1743758152.744,1.4700000286102295,0.8400000333786011,1.9600000381469727
1743758152.744,1.2599999904632568,0.49000000953674316,1.399999976158142
1743758152.817,1.0499999523162842,-0.07000000029802322,0.9100000262260437
1743758152.817,1.5399999618530273,-0.49000000953674316,0.8400000333786011
1743758152.817,1.6100000143051147,-0.6299999952316284,0.5600000023841858
1743758152.817,1.5399999618530273,-0.3499999940395355,0.7699999809265137
1743758152.89,1.0499999523162842,0.5600000023841858,0.6299999952316284
1743758152.89,1.399999976158142,0.3499999940395355,1.0499999523162842
1743758152.89,1.0499999523162842,1.2599999904632568,0.7699999809265137
1743758152.89,1.5399999618530273,0.3499999940395355,0.7699999809265137
1743758152.963,0.8400000333786011,0.2800000011920929,0
1743758152.963,0.8400000333786011,0.49000000953674316,0
1743758152.963,1.2599999904632568,-0.21000000834465027,0.5600000023841858
1743758152.963,-0.07000000029802322,0.2800000011920929,-0.14000000059604645
1743758153.036,0.2800000011920929,-1.0499999523162842,0.14000000059604645
1743758153.036,0.07000000029802322,-0.21000000834465027,0.2800000011920929
1743758153.036,1.1200000047683716,0.8400000333786011,0.42000001668930054
1743758153.036,0.8400000333786011,0.6299999952316284,-0.07000000029802322
1743758153.109,0,0.21000000834465027,0.2800000011920929
1743758153.109,0.7699999809265137,-0.21000000834465027,0.8400000333786011
1743758153.109,0.699999988079071,-0.07000000029802322,0.9100000262260437
1743758153.109,0.9100000262260437,-0.49000000953674316,0.07000000029802322
1743758153.182,0.2800000011920929,-0.9100000262260437,0.07000000029802322
1743758153.182,0,0,-0.21000000834465027
1743758153.182,0.42000001668930054,-0.07000000029802322,0.8400000333786011
1743758153.182,0,0.699999988079071,0.49000000953674316
1743758153.255,0.14000000059604645,0.21000000834465027,0.49000000953674316
1743758153.255,-0.2800000011920929,0,0.07000000029802322
1743758153.255,-0.9100000262260437,0.14000000059604645,0.14000000059604645
1743758153.255,-0.14000000059604645,-0.8400000333786011,-0.3499999940395355
1743758153.328,0.07000000029802322,-0.9800000190734863,-0.9100000262260437
1743758153.328,0.5600000023841858,-1.190000057220459,-0.699999988079071
1743758153.328,1.0499999523162842,-0.7699999809265137,-0.5600000023841858
1743758153.328,0.7699999809265137,0.07000000029802322,0
1743758153.401,0.6299999952316284,0.21000000834465027,0.3499999940395355
1743758153.401,0.699999988079071,-0.42000001668930054,0.21000000834465027
1743758153.401,0.2800000011920929,-0.3499999940395355,0.21000000834465027
1743758153.401,0.9100000262260437,-1.1200000047683716,0.6299999952316284
1743758153.474,0.5600000023841858,-1.4700000286102295,-0.3499999940395355
1743758153.474,1.0499999523162842,-1.8899999856948853,-0.9100000262260437
1743758153.474,1.5399999618530273,-1.4700000286102295,-1.3300000429153442
1743758153.474,1.3300000429153442,-0.9100000262260437,-0.8400000333786011
1743758153.547,1.8899999856948853,-1.4700000286102295,-0.699999988079071
1743758153.547,0.8400000333786011,-1.6800000667572021,-0.9800000190734863
1743758153.547,0.7699999809265137,-1.190000057220459,-1.399999976158142
1743758153.547,1.399999976158142,-0.8400000333786011,-0.9800000190734863
1743758153.62,1.6100000143051147,-1.1200000047683716,-0.2800000011920929
1743758153.62,1.6100000143051147,-1.4700000286102295,-0.5600000023841858
1743758153.62,0.42000001668930054,-0.7699999809265137,-0.5600000023841858
1743758153.62,0.5600000023841858,-0.42000001668930054,-0.07000000029802322
1743758153.693,0.9100000262260437,-0.14000000059604645,0.07000000029802322
1743758153.693,0.49000000953674316,-0.3499999940395355,-0.42000001668930054
1743758153.693,0.07000000029802322,-0.699999988079071,-0.3499999940395355
1743758153.693,0.14000000059604645,-0.3499999940395355,0
1743758153.766,-0.07000000029802322,0.14000000059604645,0.49000000953674316
1743758153.766,-0.6299999952316284,0.6299999952316284,0.7699999809265137
1743758153.766,-0.8400000333786011,0.49000000953674316,1.1200000047683716
1743758153.766,-0.5600000023841858,-0.21000000834465027,1.399999976158142
1743758153.839,-0.5600000023841858,0.07000000029802322,0.9800000190734863
1743758153.839,0,-0.49000000953674316,0.699999988079071
1743758153.839,0.07000000029802322,-1.2599999904632568,0.49000000953674316
1743758153.839,0.42000001668930054,-2.240000009536743,0
1743758153.912,0.9800000190734863,-1.6100000143051147,-0.14000000059604645
1743758153.912,1.6100000143051147,-2.1700000762939453,-0.2800000011920929
1743758153.912,1.4700000286102295,-2.380000114440918,-0.5600000023841858
1743758153.912,1.3300000429153442,-2.309999942779541,0.21000000834465027
1743758153.985,2.0299999713897705,-2.0999999046325684,0.699999988079071
1743758153.985,1.8899999856948853,-1.5399999618530273,0.8400000333786011
1743758153.985,1.9600000381469727,-0.49000000953674316,0.5600000023841858
1743758153.985,2.380000114440918,-0.42000001668930054,0.6299999952316284
1743758154.058,2.309999942779541,-1.399999976158142,0.3499999940395355
1743758154.058,1.9600000381469727,-2.870000123977661,-0.42000001668930054
1743758154.058,1.8899999856948853,-3.009999990463257,-0.699999988079071
1743758154.058,2.240000009536743,-2.450000047683716,-0.2800000011920929
1743758154.131,1.4700000286102295,-2.0299999713897705,0.14000000059604645
1743758154.131,0.6299999952316284,-1.6800000667572021,0
1743758154.131,0.21000000834465027,-1.0499999523162842,-0.42000001668930054
1743758154.131,-0.49000000953674316,-0.699999988079071,-0.3499999940395355
1743758154.204,-1.0499999523162842,-1.8899999856948853,-0.21000000834465027
1743758154.204,-1.8200000524520874,-2.799999952316284,-0.7699999809265137
1743758154.204,-1.75,-2.380000114440918,-1.4700000286102295
1743758154.204,-0.5600000023841858,-0.9100000262260437,-1.6100000143051147
1743758154.277,0.14000000059604645,-0.21000000834465027,-1.6100000143051147
1743758154.277,-1.0499999523162842,-0.2800000011920929,-1.5399999618530273
1743758154.277,-1.6800000667572021,-0.07000000029802322,-1.6800000667572021
1743758154.277,-1.1200000047683716,-0.7699999809265137,-1.1200000047683716
1743758154.35,-0.699999988079071,-1.6100000143051147,-1.5399999618530273
1743758154.35,-0.42000001668930054,-1.8899999856948853,-2.0299999713897705
1743758154.35,0.3499999940395355,-0.3499999940395355,-2.0299999713897705
1743758154.35,0.49000000953674316,0.9800000190734863,-1.8200000524520874
1743758154.423,0.9100000262260437,0.07000000029802322,-1.6100000143051147
1743758154.423,0.07000000029802322,-0.9100000262260437,-1.75
1743758154.423,0.14000000059604645,-1.2599999904632568,-2.0299999713897705
1743758154.423,0.21000000834465027,-0.42000001668930054,-2.380000114440918
1743758154.496,0.21000000834465027,-0.2800000011920929,-1.75
1743758154.496,0.6299999952316284,-0.8400000333786011,-1.5399999618530273
1743758154.496,-0.2800000011920929,-1.5399999618530273,-1.75
1743758154.496,-0.07000000029802322,-2.0999999046325684,-1.8899999856948853
1743758154.569,-0.3499999940395355,-1.3300000429153442,-1.6800000667572021
1743758154.569,0.07000000029802322,-1.2599999904632568,-0.9100000262260437
1743758154.569,0.21000000834465027,-0.5600000023841858,-1.0499999523162842
1743758154.569,0.7699999809265137,-1.6100000143051147,-0.7699999809265137
1743758154.642,0.699999988079071,-2.0299999713897705,-1.2599999904632568
1743758154.642,0.14000000059604645,-2.0999999046325684,-0.8400000333786011
1743758154.642,0.2800000011920929,-1.6800000667572021,-0.7699999809265137
1743758154.642,1.1200000047683716,-1.8200000524520874,-0.699999988079071
1743758154.715,0.9800000190734863,-2.0299999713897705,-0.699999988079071
1743758154.715,0.2800000011920929,-1.2599999904632568,-0.14000000059604645
1743758154.715,1.1200000047683716,-0.14000000059604645,0.699999988079071
1743758154.715,0.699999988079071,0.21000000834465027,1.190000057220459
1743758154.788,-0.14000000059604645,0.14000000059604645,1.4700000286102295
1743758154.788,-0.42000001668930054,0.21000000834465027,1.6100000143051147
1743758154.788,-0.5600000023841858,0.21000000834465027,1.399999976158142
1743758154.788,0.07000000029802322,-0.42000001668930054,0.699999988079071
1743758154.861,0.2800000011920929,-0.9800000190734863,0.3499999940395355
1743758154.861,0.21000000834465027,-0.699999988079071,-0.14000000059604645
1743758154.861,0,0.5600000023841858,0.6299999952316284
1743758154.861,0.42000001668930054,1.0499999523162842,0.6299999952316284
1743758154.934,-0.21000000834465027,0.8400000333786011,1.0499999523162842
1743758154.934,-0.21000000834465027,-0.42000001668930054,1.3300000429153442
1743758154.934,-0.3499999940395355,-1.4700000286102295,1.0499999523162842
1743758154.934,-0.5600000023841858,-0.9800000190734863,0.699999988079071
1743758155.007,0.2800000011920929,0.3499999940395355,0.5600000023841858
1743758155.007,0.699999988079071,1.399999976158142,0.3499999940395355
1743758155.007,0.7699999809265137,1.0499999523162842,0.49000000953674316
1743758155.007,0.14000000059604645,-0.9800000190734863,0.2800000011920929
1743758155.08,-0.7699999809265137,-2.380000114440918,0
1743758155.08,-0.14000000059604645,-1.9600000381469727,-0.699999988079071
1743758155.08,0.42000001668930054,-0.42000001668930054,-0.8400000333786011
1743758155.08,0.5600000023841858,0.07000000029802322,-0.7699999809265137
1743758155.153,0.7699999809265137,-0.21000000834465027,-0.699999988079071
1743758155.153,0.3499999940395355,-0.699999988079071,-0.21000000834465027
1743758155.153,0.3499999940395355,-0.42000001668930054,0.07000000029802322
1743758155.153,0.42000001668930054,-0.14000000059604645,0.21000000834465027
1743758155.226,0.8400000333786011,-0.2800000011920929,0.14000000059604645
1743758155.226,0.42000001668930054,0.3499999940395355,-0.14000000059604645
1743758155.226,0.6299999952316284,-0.49000000953674316,-0.2800000011920929
1743758155.226,0.2800000011920929,-1.4700000286102295,-0.42000001668930054
1743758155.299,-0.14000000059604645,-1.399999976158142,-0.2800000011920929
1743758155.299,0.9800000190734863,-0.6299999952316284,-0.2800000011920929
1743758155.299,0.49000000953674316,0.07000000029802322,-0.6299999952316284
1743758155.299,0.7699999809265137,-0.699999988079071,-0.42000001668930054
1743758155.372,0.49000000953674316,-0.8400000333786011,-0.49000000953674316
1743758155.372,0.5600000023841858,-1.6800000667572021,-0.07000000029802322
1743758155.372,0.42000001668930054,-0.9800000190734863,-0.14000000059604645
1743758155.372,0.5600000023841858,-0.49000000953674316,-0.49000000953674316
1743758155.445,0.699999988079071,-0.9100000262260437,0.14000000059604645
1743758155.445,0.8400000333786011,-2.5899999141693115,0.3499999940395355
1743758155.445,0.6299999952316284,-3.7799999713897705,-0.14000000059604645
1743758155.445,-0.21000000834465027,-2.309999942779541,-0.7699999809265137
1743758155.518,1.3300000429153442,-1.1200000047683716,-0.699999988079071
1743758155.518,0.699999988079071,0.5600000023841858,0
1743758155.518,1.2599999904632568,0.42000001668930054,-0.07000000029802322
1743758155.518,-0.5600000023841858,-0.21000000834465027,-0.07000000029802322
1743758155.591,0,-0.49000000953674316,-0.49000000953674316
1743758155.591,1.0499999523162842,-1.3300000429153442,-0.42000001668930054
1743758155.591,0.42000001668930054,-0.699999988079071,-1.6100000143051147
1743758155.591,1.75,-1.2599999904632568,-1.75
1743758155.664,1.0499999523162842,-0.21000000834465027,-1.5399999618530273
1743758155.664,1.0499999523162842,0.2800000011920929,-1.0499999523162842
1743758155.664,0.07000000029802322,0.3499999940395355,-0.9100000262260437
1743758155.664,0.3499999940395355,0.5600000023841858,-1.2599999904632568
1743758155.737,0.2800000011920929,0,-1.0499999523162842
1743758155.737,-0.07000000029802322,-0.49000000953674316,-1.190000057220459
1743758155.737,-0.2800000011920929,0.7699999809265137,-0.9800000190734863
1743758155.737,0.8400000333786011,0.7699999809265137,-0.8400000333786011
1743758155.81,0.5600000023841858,0.49000000953674316,-1.190000057220459
1743758155.81,-0.49000000953674316,-0.2800000011920929,-1.2599999904632568
1743758155.81,-0.5600000023841858,-0.49000000953674316,-0.9800000190734863
1743758155.81,0,-0.2800000011920929,-0.9800000190734863
1743758155.883,0.14000000059604645,-0.2800000011920929,-1.1200000047683716
1743758155.883,-0.5600000023841858,-0.21000000834465027,-0.5600000023841858
1743758155.883,0.2800000011920929,0.8400000333786011,-0.14000000059604645
1743758155.883,0.9100000262260437,0.9800000190734863,0.9100000262260437
1743758155.956,2.0299999713897705,0.07000000029802322,1.6800000667572021
1743758155.956,0.07000000029802322,-0.21000000834465027,0.07000000029802322
1743758155.956,-0.42000001668930054,0.14000000059604645,0.49000000953674316
1743758155.956,1.190000057220459,0.5600000023841858,1.6100000143051147
1743758156.029,0.49000000953674316,0.5600000023841858,1.190000057220459
1743758156.029,0.6299999952316284,0.49000000953674316,0.49000000953674316
1743758156.029,1.0499999523162842,0.3499999940395355,0.8400000333786011
1743758156.029,0.7699999809265137,0,0.9100000262260437
1743758156.102,0.14000000059604645,-0.14000000059604645,0.7699999809265137
1743758156.102,0.699999988079071,-1.1200000047683716,0.8400000333786011
1743758156.102,0.3499999940395355,-0.8400000333786011,0.9800000190734863
1743758156.102,0.42000001668930054,-0.49000000953674316,1.190000057220459
1743758156.175,0.42000001668930054,-0.49000000953674316,1.0499999523162842
1743758156.175,-0.3499999940395355,-1.0499999523162842,0.9100000262260437
1743758156.175,-0.6299999952316284,-1.190000057220459,0.8400000333786011
1743758156.175,-0.2800000011920929,-1.6800000667572021,0.42000001668930054
1743758156.248,0.07000000029802322,-1.8899999856948853,-0.21000000834465027
1743758156.248,0.49000000953674316,-2.0299999713897705,-0.5600000023841858
1743758156.248,0.9100000262260437,-1.0499999523162842,-0.21000000834465027
1743758156.248,1.1200000047683716,-0.8400000333786011,0.6299999952316284
1743758156.321,0.5600000023841858,-0.7699999809265137,0.6299999952316284
1743758156.321,-0.21000000834465027,-0.21000000834465027,0.3499999940395355
1743758156.321,-0.49000000953674316,-0.07000000029802322,0.5600000023841858
1743758156.321,-0.5600000023841858,-0.6299999952316284,0.07000000029802322
1743758156.394,-0.07000000029802322,-1.8200000524520874,-0.6299999952316284
1743758156.394,0.14000000059604645,-1.6100000143051147,-1.6800000667572021
1743758156.394,-0.07000000029802322,-1.0499999523162842,-1.399999976158142
1743758156.394,-0.699999988079071,-0.14000000059604645,-0.9800000190734863
1743758156.467,-0.49000000953674316,0.49000000953674316,-1.3300000429153442
1743758156.467,-0.8400000333786011,-0.3499999940395355,-1.6800000667572021
1743758156.467,-1.4700000286102295,-1.3300000429153442,-1.5399999618530273
1743758156.467,-1.399999976158142,-0.9100000262260437,-1.3300000429153442
1743758156.54,-0.5600000023841858,0,-0.42000001668930054
1743758156.54,0.2800000011920929,0.699999988079071,0.07000000029802322
1743758156.54,0.7699999809265137,0.3499999940395355,0.14000000059604645
1743758156.54,0.49000000953674316,0.42000001668930054,0.3499999940395355
1743758156.613,0.49000000953674316,-0.5600000023841858,1.2599999904632568
1743758156.613,0.9800000190734863,-0.9100000262260437,1.2599999904632568
1743758156.613,1.8899999856948853,-0.699999988079071,0.699999988079071
1743758156.613,2.799999952316284,-0.6299999952316284,0.6299999952316284
1743758156.686,2.940000057220459,-1.2599999904632568,0.9100000262260437
1743758156.686,3.009999990463257,-1.6100000143051147,1.190000057220459
1743758156.686,3.2899999618530273,-0.699999988079071,2.0299999713897705
1743758156.686,3.009999990463257,0.3499999940395355,3.009999990463257
1743758156.759,1.8899999856948853,-0.42000001668930054,2.940000057220459
1743758156.759,1.0499999523162842,-2.380000114440918,2.380000114440918
1743758156.759,0.14000000059604645,-5.25,3.8499999046325684
1743758156.759,-0.5600000023841858,-6.230000019073486,3.2200000286102295
1743758156.832,-1.6100000143051147,-5.039999961853027,2.1700000762939453
1743758156.832,0.2800000011920929,-2.6600000858306885,1.8200000524520874
1743758156.832,1.2599999904632568,-0.42000001668930054,1.399999976158142
1743758156.832,1.1200000047683716,1.1200000047683716,1.4700000286102295
1743758156.905,2.450000047683716,1.5399999618530273,0.9100000262260437
1743758156.905,2.5899999141693115,0.9100000262260437,0.6299999952316284
1743758156.905,2.309999942779541,0.6299999952316284,0.14000000059604645
1743758156.905,3.0799999237060547,2.240000009536743,-0.42000001668930054
1743758156.978,4.760000228881836,2.450000047683716,0.21000000834465027
1743758156.978,3.5,2.0299999713897705,0.21000000834465027
1743758156.978,2.5899999141693115,4.059999942779541,0.07000000029802322
1743758156.978,4.480000019073486,5.53000020980835,0.8400000333786011
1743758157.051,3.5,4.409999847412109,0.7699999809265137
1743758157.051,1.75,0.7699999809265137,-0.8400000333786011
1743758157.051,1.2599999904632568,-0.6299999952316284,-1.190000057220459
1743758157.051,1.8899999856948853,-0.5600000023841858,-0.3499999940395355
1743758157.124,1.0499999523162842,-0.21000000834465027,-0.07000000029802322
1743758157.124,0.42000001668930054,0.14000000059604645,0.14000000059604645
1743758157.124,1.8200000524520874,-1.0499999523162842,-0.14000000059604645
1743758157.124,1.2599999904632568,-0.699999988079071,-1.2599999904632568
1743758157.197,2.0299999713897705,1.190000057220459,-1.399999976158142
1743758157.197,3.3600001335144043,2.309999942779541,-1.190000057220459
1743758157.197,2.240000009536743,1.190000057220459,-0.6299999952316284
1743758157.197,1.399999976158142,0.699999988079071,0
1743758157.27,1.0499999523162842,0.6299999952316284,1.1200000047683716
1743758157.27,1.0499999523162842,0.2800000011920929,1.8899999856948853
1743758157.27,0.5600000023841858,-1.2599999904632568,1.3300000429153442
1743758157.27,0.21000000834465027,-1.1200000047683716,0.6299999952316284
1743758157.343,0.5600000023841858,0.07000000029802322,1.1200000047683716
1743758157.343,1.4700000286102295,0.5600000023841858,0.8400000333786011
1743758157.343,1.0499999523162842,-0.14000000059604645,0.42000001668930054
1743758157.343,0.42000001668930054,-0.8400000333786011,0.07000000029802322
1743758157.416,-0.14000000059604645,-1.3300000429153442,0.07000000029802322
1743758157.416,-0.2800000011920929,-2.1700000762939453,0
1743758157.416,0.3499999940395355,-4.059999942779541,-0.42000001668930054
1743758157.416,0.21000000834465027,-3.9200000762939453,-1.399999976158142
1743758157.489,0.14000000059604645,-1.8200000524520874,-1.0499999523162842
1743758157.489,0.49000000953674316,0.21000000834465027,-0.5600000023841858
1743758157.489,0.14000000059604645,0.42000001668930054,-0.21000000834465027
1743758157.489,-0.49000000953674316,-0.3499999940395355,-1.190000057220459
1743758157.562,-0.8400000333786011,0.6299999952316284,-3.009999990463257
1743758157.562,-0.9800000190734863,2.799999952316284,-4.340000152587891
1743758157.562,-1.8200000524520874,6.159999847412109,-7.349999904632568
1743758157.562,-3.1500000953674316,6.860000133514404,-9.380000114440918
1743758157.635,-6.510000228881836,9.730000495910645,-15.329999923706055
1743758157.635,-9.239999771118164,12.8100004196167,-25.6200008392334
1743758157.635,-15.819999694824219,19.8799991607666,-37.380001068115234
1743758157.635,-19.530000686645508,15.399999618530273,-44.72999954223633
1743758157.708,-14.279999732971191,14.5600004196167,-49.4900016784668
1743758157.708,-3.5,3.640000104904175,-32.689998626708984
1743758157.708,0.21000000834465027,-1.5399999618530273,-17.5
1743758157.708,-3.009999990463257,4.619999885559082,-13.020000457763672
1743758157.781,-3.2200000286102295,8.1899995803833,-15.119999885559082
1743758157.781,-9.59000015258789,8.399999618530273,-23.8700008392334
1743758157.781,-14.140000343322754,10.640000343322754,-38.709999084472656
1743758157.781,-12.600000381469727,4.480000019073486,-49.13999938964844
1743758157.854,-10.289999961853027,-5.670000076293945,-51.52000045776367
1743758157.854,-2.7300000190734863,-3.0799999237060547,-61.31999969482422
1743758157.854,2.450000047683716,14.069999694824219,-90.86000061035156
1743758157.854,0.8400000333786011,40.11000061035156,-126.91000366210938
1743758157.927,2.5199999809265137,50.75,-153.22999572753906
1743758157.927,-20.020000457763672,24.639999389648438,-146.3699951171875
1743758157.927,-26.600000381469727,8.75,-100.30999755859375
1743758157.927,-4.760000228881836,20.3700008392334,-62.720001220703125
1743758158,11.0600004196167,50.33000183105469,-37.029998779296875
1743758158,16.450000762939453,92.61000061035156,-0.14000000059604645
1743758158,21.420000076293945,140.91000366210938,49.560001373291016
1743758158,24.149999618530273,181.86000061035156,93.0999984741211
1743758158.073,19.18000030517578,203.2100067138672,100.66000366210938
1743758158.073,-3.8499999046325684,211.3300018310547,68.52999877929688
1743758158.073,-27.229999542236328,202.44000244140625,7.490000247955322
1743758158.073,-34.29999923706055,165.8300018310547,-30.799999237060547
1743758158.146,-29.469999313354492,112.41999816894531,-34.22999954223633
1743758158.146,-15.470000267028809,51.72999954223633,-23.729999542236328
1743758158.146,-8.470000267028809,-7.420000076293945,-12.390000343322754
1743758158.146,-4.690000057220459,-52.150001525878906,-8.470000267028809
1743758158.219,3.7100000381469727,-74.34000396728516,-8.680000305175781
1743758158.219,13.789999961853027,-76.16000366210938,-4.829999923706055
1743758158.219,21.420000076293945,-68.18000030517578,1.3300000429153442
1743758158.219,20.579999923706055,-58.380001068115234,3.5
1743758158.292,15.539999961853027,-51.52000045776367,2.1700000762939453
1743758158.292,10.359999656677246,-41.09000015258789,-0.7699999809265137
1743758158.292,9.65999984741211,-27.229999542236328,0.5600000023841858
1743758158.292,11.6899995803833,-11.550000190734863,4.900000095367432
1743758158.365,13.15999984741211,0.5600000023841858,13.020000457763672
1743758158.365,12.319999694824219,6.230000019073486,21.350000381469727
1743758158.365,10.010000228881836,5.809999942779541,25.549999237060547
1743758158.365,8.960000038146973,3.2200000286102295,25.479999542236328
1743758158.438,6.369999885559082,1.399999976158142,23.309999465942383
1743758158.438,3.2200000286102295,-1.75,19.25
1743758158.438,3.009999990463257,-3.9200000762939453,13.230000495910645
1743758158.438,5.179999828338623,-7.699999809265137,10.430000305175781
1743758158.511,5.110000133514404,-10.640000343322754,10.850000381469727
1743758158.511,4.480000019073486,-10.430000305175781,9.869999885559082
1743758158.511,4.619999885559082,-7.980000019073486,7.420000076293945
1743758158.511,4.409999847412109,-5.110000133514404,4.409999847412109
1743758158.584,4.760000228881836,-4.409999847412109,3.9200000762939453
1743758158.584,4.409999847412109,-5.670000076293945,4.199999809265137
1743758158.584,3.430000066757202,-7.210000038146973,4.130000114440918
1743758158.584,1.75,-7.559999942779541,3.009999990463257
1743758158.657,-0.21000000834465027,-7.630000114440918,2.6600000858306885
1743758158.657,-0.6299999952316284,-8.539999961853027,4.760000228881836
1743758158.657,-0.699999988079071,-7.349999904632568,6.019999980926514
1743758158.657,-0.9800000190734863,-6.579999923706055,5.179999828338623
1743758158.73,-2.240000009536743,-4.340000152587891,3.3600001335144043
1743758158.73,-2.450000047683716,-0.6299999952316284,2.0999999046325684
1743758158.73,-2.0999999046325684,2.799999952316284,2.7300000190734863
1743758158.73,-3.569999933242798,3.7799999713897705,3.009999990463257
1743758158.803,-4.269999980926514,3.3600001335144043,2.5199999809265137
1743758158.803,-4.199999809265137,2.5199999809265137,3.569999933242798
1743758158.803,-2.5899999141693115,1.0499999523162842,2.6600000858306885
1743758158.803,-2.0999999046325684,-0.42000001668930054,-0.3499999940395355
1743758158.876,-1.3300000429153442,-3.7799999713897705,-1.8200000524520874
1743758158.876,0.07000000029802322,-6.510000228881836,-1.1200000047683716
1743758158.876,0.699999988079071,-8.1899995803833,0.14000000059604645
1743758158.876,0.7699999809265137,-9.029999732971191,-0.49000000953674316
1743758158.949,0.8400000333786011,-10.640000343322754,-0.6299999952316284
1743758158.949,1.190000057220459,-11.760000228881836,-0.14000000059604645
1743758158.949,1.190000057220459,-12.109999656677246,0.21000000834465027
1743758158.949,2.1700000762939453,-9.170000076293945,-0.9100000262260437
1743758159.022,3.009999990463257,-5.039999961853027,0
1743758159.022,4.550000190734863,-1.6800000667572021,1.6100000143051147
1743758159.022,3.7100000381469727,-0.2800000011920929,1.0499999523162842
1743758159.022,1.75,-0.2800000011920929,0.42000001668930054
1743758159.095,1.9600000381469727,0,-0.6299999952316284
1743758159.095,1.6800000667572021,-0.2800000011920929,-1.2599999904632568
1743758159.095,1.190000057220459,-1.399999976158142,-0.6299999952316284
1743758159.095,1.2599999904632568,-1.4700000286102295,0.8400000333786011
1743758159.168,2.1700000762939453,-0.49000000953674316,1.6800000667572021
1743758159.168,2.5199999809265137,-0.3499999940395355,2.6600000858306885
1743758159.168,0.699999988079071,-1.3300000429153442,2.0299999713897705
1743758159.168,-0.21000000834465027,-1.6100000143051147,0.9100000262260437
1743758159.241,-0.3499999940395355,-1.190000057220459,-1.1200000047683716
1743758159.241,1.3300000429153442,-2.0999999046325684,-1.399999976158142
1743758159.241,1.8899999856948853,-3.5,-0.8400000333786011
1743758159.241,1.8200000524520874,-4.619999885559082,0.49000000953674316
1743758159.314,1.4700000286102295,-4.829999923706055,0.699999988079071
1743758159.314,2.0299999713897705,-4.409999847412109,1.6100000143051147
1743758159.314,3.2200000286102295,-3.2899999618530273,2.309999942779541
1743758159.314,3.009999990463257,-2.7300000190734863,2.6600000858306885
1743758159.387,2.240000009536743,-1.190000057220459,2.309999942779541
1743758159.387,3.009999990463257,-0.6299999952316284,1.6800000667572021
1743758159.387,3.009999990463257,-1.6100000143051147,1.6800000667572021
1743758159.387,2.6600000858306885,-2.799999952316284,2.870000123977661
1743758159.46,2.5899999141693115,-2.7300000190734863,2.7300000190734863
1743758159.46,1.2599999904632568,-1.8899999856948853,1.399999976158142
1743758159.46,0.9800000190734863,-1.399999976158142,-0.07000000029802322
1743758159.46,0.9800000190734863,-1.9600000381469727,-0.2800000011920929
1743758159.533,0,-2.5199999809265137,-0.07000000029802322
1743758159.533,0.3499999940395355,-2.309999942779541,-0.42000001668930054
1743758159.533,0.49000000953674316,-1.9600000381469727,0.07000000029802322
1743758159.533,0.07000000029802322,-1.6100000143051147,0.42000001668930054
1743758159.606,-0.5600000023841858,-0.9800000190734863,-0.49000000953674316
1743758159.606,-0.5600000023841858,-0.2800000011920929,-0.42000001668930054
1743758159.606,-0.699999988079071,0.9100000262260437,-1.4700000286102295
1743758159.606,-2.7300000190734863,2.0299999713897705,-3.5
1743758159.679,-3.7799999713897705,2.0299999713897705,-3.569999933242798
1743758159.679,-5.039999961853027,3.430000066757202,-2.799999952316284
1743758159.679,-6.230000019073486,4.900000095367432,-2.240000009536743
1743758159.679,-6.650000095367432,5.949999809265137,-2.0999999046325684
1743758159.752,-7.840000152587891,5.320000171661377,-1.8899999856948853
1743758159.752,-7.420000076293945,4.409999847412109,-1.4700000286102295
1743758159.752,-8.539999961853027,1.4700000286102295,2.1700000762939453
1743758159.752,-7.210000038146973,2.0999999046325684,-2.6600000858306885
1743758159.825,-5.53000020980835,1.8899999856948853,-3.1500000953674316
1743758159.825,-3.9200000762939453,2.0999999046325684,-3.990000009536743
1743758159.825,-1.6100000143051147,1.190000057220459,-1.8899999856948853
1743758159.825,-0.9800000190734863,0.9800000190734863,-1.190000057220459
1743758159.898,-0.3499999940395355,0.9800000190734863,-2.0299999713897705
1743758159.898,0.21000000834465027,0.699999988079071,-1.9600000381469727
1743758159.898,0.3499999940395355,0.42000001668930054,-2.1700000762939453
1743758159.898,0.7699999809265137,0,-1.75
1743758159.971,1.2599999904632568,-0.49000000953674316,-0.6299999952316284
1743758159.971,1.399999976158142,-0.21000000834465027,0.699999988079071
1743758159.971,0.8400000333786011,0.6299999952316284,1.2599999904632568
1743758159.971,1.190000057220459,1.8200000524520874,1.1200000047683716
1743758160.044,1.399999976158142,1.0499999523162842,0.9100000262260437
1743758160.044,0.3499999940395355,-0.699999988079071,1.399999976158142
1743758160.044,0.6299999952316284,-1.2599999904632568,1.9600000381469727
1743758160.044,-0.6299999952316284,0,1.0499999523162842
1743758160.117,0.7699999809265137,0.14000000059604645,0.9800000190734863
1743758160.117,-0.49000000953674316,0.07000000029802322,2.0999999046325684
1743758160.117,-0.7699999809265137,-0.14000000059604645,2.5899999141693115
1743758160.117,0.9800000190734863,0.07000000029802322,1.75
1743758160.19,-0.5600000023841858,-0.42000001668930054,1.75
1743758160.19,1.5399999618530273,-1.0499999523162842,2.5199999809265137
1743758160.19,1.399999976158142,-0.3499999940395355,2.0999999046325684
1743758160.19,1.6800000667572021,0,2.0299999713897705
1743758160.263,0.5600000023841858,0.2800000011920929,2.450000047683716
1743758160.263,0.49000000953674316,-0.699999988079071,3.009999990463257
1743758160.263,0,0.14000000059604645,3.0799999237060547
1743758160.263,1.190000057220459,0.21000000834465027,2.940000057220459
1743758160.336,1.2599999904632568,-0.07000000029802322,2.450000047683716
1743758160.336,0.5600000023841858,-1.190000057220459,1.6800000667572021
1743758160.336,1.6800000667572021,-1.8200000524520874,0.6299999952316284
1743758160.336,0.14000000059604645,-1.5399999618530273,0.9800000190734863
1743758160.409,1.399999976158142,-0.49000000953674316,0.2800000011920929
1743758160.409,-0.3499999940395355,0.21000000834465027,0.3499999940395355
1743758160.409,-0.2800000011920929,-0.21000000834465027,1.4700000286102295
1743758160.409,0.7699999809265137,-0.5600000023841858,2.240000009536743
1743758160.482,-0.2800000011920929,-0.14000000059604645,1.8899999856948853
1743758160.482,0.6299999952316284,-0.14000000059604645,0.49000000953674316
1743758160.482,-1.3300000429153442,-0.42000001668930054,0.21000000834465027
1743758160.482,-0.7699999809265137,-0.6299999952316284,0.21000000834465027
1743758160.555,-0.07000000029802322,-0.49000000953674316,0.9100000262260437
1743758160.555,0.49000000953674316,-0.9100000262260437,0.8400000333786011
1743758160.555,-0.07000000029802322,-0.6299999952316284,0.3499999940395355
1743758160.555,1.1200000047683716,-1.2599999904632568,0.3499999940395355
1743758160.628,1.190000057220459,-1.6100000143051147,-0.21000000834465027
1743758160.628,1.8899999856948853,-2.6600000858306885,0.14000000059604645
1743758160.628,1.399999976158142,-2.6600000858306885,0.42000001668930054
1743758160.628,1.6800000667572021,-1.8200000524520874,0.7699999809265137
1743758160.701,1.75,-0.2800000011920929,0.42000001668930054
1743758160.701,0.9800000190734863,-0.3499999940395355,0.3499999940395355
1743758160.701,1.0499999523162842,-0.42000001668930054,0.8400000333786011
1743758160.701,1.1200000047683716,-0.699999988079071,1.0499999523162842
1743758160.774,0.42000001668930054,-0.49000000953674316,0.14000000059604645
1743758160.774,0.07000000029802322,-0.3499999940395355,-0.699999988079071
1743758160.774,0.42000001668930054,-0.21000000834465027,-0.42000001668930054
1743758160.774,0.21000000834465027,-0.49000000953674316,-0.3499999940395355
1743758160.847,-0.42000001668930054,-0.42000001668930054,-0.7699999809265137
1743758160.847,-0.3499999940395355,-0.21000000834465027,-0.7699999809265137
1743758160.847,0.21000000834465027,-0.49000000953674316,0.42000001668930054
1743758160.847,0,-0.5600000023841858,1.3300000429153442
1743758160.92,-0.07000000029802322,0.2800000011920929,0.8400000333786011
1743758160.92,-0.2800000011920929,0.14000000059604645,2.0999999046325684
1743758160.92,-0.42000001668930054,0.21000000834465027,2.940000057220459
1743758160.92,-1.1200000047683716,0.49000000953674316,2.5899999141693115
1743758160.993,-0.6299999952316284,0.42000001668930054,2.309999942779541
1743758160.993,-0.21000000834465027,-0.699999988079071,2.940000057220459
1743758160.993,-0.699999988079071,-1.1200000047683716,2.5199999809265137
1743758160.993,-1.2599999904632568,0.14000000059604645,2.0999999046325684
1743758161.066,-0.7699999809265137,1.3300000429153442,1.75
1743758161.066,-0.9800000190734863,1.190000057220459,2.240000009536743
1743758161.066,-0.5600000023841858,-0.14000000059604645,2.1700000762939453
1743758161.066,-1.8899999856948853,-0.5600000023841858,2.1700000762939453
1743758161.139,-1.2599999904632568,-0.49000000953674316,2.5199999809265137
1743758161.139,-1.3300000429153442,0.5600000023841858,2.7300000190734863
1743758161.139,0.14000000059604645,0.6299999952316284,3.1500000953674316
1743758161.139,0,0.5600000023841858,2.870000123977661
1743758161.212,-0.2800000011920929,0.5600000023841858,2.7300000190734863
1743758161.212,0.2800000011920929,0,2.450000047683716
1743758161.212,-0.7699999809265137,-0.21000000834465027,2.7300000190734863
1743758161.212,0.49000000953674316,-0.49000000953674316,3.0799999237060547
1743758161.285,0.2800000011920929,-0.14000000059604645,2.940000057220459
1743758161.285,-0.3499999940395355,0.699999988079071,2.309999942779541
1743758161.285,0.9100000262260437,1.6800000667572021,2.309999942779541
1743758161.285,1.0499999523162842,1.6100000143051147,1.1200000047683716
1743758161.358,1.1200000047683716,0.3499999940395355,0.14000000059604645
1743758161.358,2.0299999713897705,-0.699999988079071,0.07000000029802322
1743758161.358,1.5399999618530273,-1.190000057220459,0.8400000333786011
1743758161.358,0.699999988079071,-0.699999988079071,0.21000000834465027
1743758161.431,-0.9100000262260437,0.2800000011920929,0.49000000953674316
1743758161.431,0.2800000011920929,0.49000000953674316,1.6100000143051147
1743758161.431,-0.14000000059604645,0.7699999809265137,1.4700000286102295
1743758161.431,-0.3499999940395355,-0.14000000059604645,0.3499999940395355
1743758161.504,-1.399999976158142,-0.699999988079071,0.21000000834465027
1743758161.504,-1.0499999523162842,-1.0499999523162842,0.42000001668930054
1743758161.504,-0.6299999952316284,-0.5600000023841858,0.699999988079071
1743758161.504,-1.0499999523162842,-0.42000001668930054,0.7699999809265137
1743758161.577,-0.3499999940395355,-0.2800000011920929,0.9100000262260437
1743758161.577,-0.07000000029802322,-0.7699999809265137,1.4700000286102295
1743758161.577,0.21000000834465027,-0.9100000262260437,0.6299999952316284
1743758161.577,0.3499999940395355,-1.3300000429153442,0.699999988079071
1743758161.65,0.7699999809265137,-1.0499999523162842,1.190000057220459
1743758161.65,1.2599999904632568,-0.8400000333786011,1.399999976158142
1743758161.65,0.49000000953674316,-0.21000000834465027,0.7699999809265137
1743758161.65,0.6299999952316284,-0.49000000953674316,0.699999988079071
1743758161.723,1.1200000047683716,-0.42000001668930054,0.9100000262260437
1743758161.723,1.3300000429153442,-0.42000001668930054,0.14000000059604645
1743758161.723,0.9100000262260437,-0.6299999952316284,-0.2800000011920929
1743758161.723,1.2599999904632568,-1.3300000429153442,0
1743758161.796,0.7699999809265137,-1.2599999904632568,-0.6299999952316284
1743758161.796,0.2800000011920929,-0.7699999809265137,-0.8400000333786011
1743758161.796,0.7699999809265137,-0.2800000011920929,-0.7699999809265137
1743758161.796,0.9100000262260437,-0.7699999809265137,-0.9100000262260437
1743758161.869,0.07000000029802322,-1.1200000047683716,-0.8400000333786011
1743758161.869,0.5600000023841858,-1.190000057220459,-0.2800000011920929
1743758161.869,0.8400000333786011,-0.7699999809265137,-0.5600000023841858
1743758161.869,0.6299999952316284,-1.399999976158142,-0.6299999952316284
1743758161.942,0.9100000262260437,-1.9600000381469727,-0.49000000953674316
1743758161.942,0.699999988079071,-1.6800000667572021,-1.190000057220459
1743758161.942,1.4700000286102295,-2.0299999713897705,-1.190000057220459
1743758161.942,0.2800000011920929,-2.1700000762939453,-0.5600000023841858
1743758162.015,1.3300000429153442,-1.8899999856948853,-0.49000000953674316
1743758162.015,0.6299999952316284,-0.42000001668930054,-0.21000000834465027
1743758162.015,1.8899999856948853,0.2800000011920929,-0.3499999940395355
1743758162.015,2.5199999809265137,-0.9800000190734863,-0.9100000262260437
1743758162.088,1.399999976158142,-3.2200000286102295,-0.49000000953674316
1743758162.088,1.190000057220459,-2.6600000858306885,0
1743758162.088,1.2599999904632568,-0.7699999809265137,0.21000000834465027
1743758162.088,0.699999988079071,0.07000000029802322,-0.14000000059604645
1743758162.161,-0.8400000333786011,-0.5600000023841858,-0.07000000029802322
1743758162.161,-0.3499999940395355,-0.21000000834465027,-0.21000000834465027
1743758162.161,-0.14000000059604645,-0.14000000059604645,0.2800000011920929
1743758162.161,-0.07000000029802322,-1.3300000429153442,-0.14000000059604645
1743758162.234,-1.6100000143051147,-1.6800000667572021,-0.42000001668930054
1743758162.234,-0.2800000011920929,-1.3300000429153442,0.14000000059604645
1743758162.234,-0.14000000059604645,-0.14000000059604645,0.21000000834465027
1743758162.234,-0.9100000262260437,0,0.21000000834465027
1743758162.307,0.49000000953674316,-0.9100000262260437,-0.21000000834465027
1743758162.307,-0.49000000953674316,-1.3300000429153442,-0.07000000029802322
1743758162.307,1.4700000286102295,-0.49000000953674316,-0.14000000059604645
1743758162.307,1.190000057220459,-0.07000000029802322,-0.3499999940395355
1743758162.38,0.9800000190734863,-0.8400000333786011,0
1743758162.38,1.9600000381469727,-1.6800000667572021,-0.699999988079071
1743758162.38,0.6299999952316284,-1.399999976158142,-1.75
1743758162.38,1.5399999618530273,-0.7699999809265137,-1.399999976158142
1743758162.453,1.0499999523162842,-0.42000001668930054,-1.1200000047683716
1743758162.453,1.0499999523162842,-0.6299999952316284,-1.1200000047683716
1743758162.453,2.1700000762939453,-1.399999976158142,-0.699999988079071
1743758162.453,1.2599999904632568,-1.3300000429153442,0
1743758162.526,1.8899999856948853,-0.7699999809265137,-0.07000000029802322
1743758162.526,0.9800000190734863,-0.42000001668930054,-0.3499999940395355
1743758162.526,1.3300000429153442,-1.2599999904632568,0.3499999940395355
1743758162.526,1.1200000047683716,-1.4700000286102295,1.1200000047683716
1743758162.599,0.3499999940395355,-1.0499999523162842,0.42000001668930054
1743758162.599,0.42000001668930054,-0.699999988079071,-0.07000000029802322
1743758162.599,0.5600000023841858,-0.49000000953674316,0.07000000029802322
1743758162.599,0.9100000262260437,-0.2800000011920929,-0.699999988079071
1743758162.672,0.8400000333786011,-0.3499999940395355,-1.0499999523162842
1743758162.672,0.9800000190734863,-1.2599999904632568,-1.1200000047683716
1743758162.672,0,-1.190000057220459,-1.6800000667572021
1743758162.672,0.5600000023841858,0.07000000029802322,-1.8200000524520874
1743758162.745,1.399999976158142,0.9100000262260437,-1.6800000667572021
1743758162.745,1.75,-0.07000000029802322,-1.6100000143051147
1743758162.745,1.0499999523162842,-1.6800000667572021,-1.5399999618530273
1743758162.745,1.5399999618530273,-1.9600000381469727,-0.7699999809265137
1743758162.818,1.75,-0.8400000333786011,-0.14000000059604645
1743758162.818,1.190000057220459,0,0.42000001668930054
1743758162.818,0.5600000023841858,0,0.6299999952316284
1743758162.818,0.21000000834465027,0.07000000029802322,0.8400000333786011
1743758162.891,0.14000000059604645,0.699999988079071,0.9100000262260437
1743758162.891,0.6299999952316284,0.49000000953674316,0.6299999952316284
1743758162.891,0.5600000023841858,-0.6299999952316284,0.5600000023841858
1743758162.891,0.21000000834465027,-1.5399999618530273,0.699999988079071
1743758162.964,0,-1.1200000047683716,0.699999988079071
1743758162.964,0,0.14000000059604645,0.5600000023841858
1743758162.964,0.3499999940395355,0.3499999940395355,0.49000000953674316
1743758162.964,0.6299999952316284,-0.9100000262260437,0.21000000834465027
1743758163.037,1.1200000047683716,-1.9600000381469727,-0.14000000059604645
1743758163.037,1.6800000667572021,-1.5399999618530273,0.2800000011920929
1743758163.037,2.309999942779541,-0.5600000023841858,0
1743758163.037,2.1700000762939453,-0.9100000262260437,-0.14000000059604645
1743758163.11,1.4700000286102295,-1.5399999618530273,0.14000000059604645
1743758163.11,1.6100000143051147,-1.0499999523162842,0.3499999940395355
1743758163.11,1.6100000143051147,-0.07000000029802322,0.699999988079071
1743758163.11,1.5399999618530273,-0.07000000029802322,1.190000057220459
1743758163.183,1.3300000429153442,-0.5600000023841858,1.5399999618530273
1743758163.183,1.3300000429153442,-1.0499999523162842,1.4700000286102295
1743758163.183,1.1200000047683716,-0.3499999940395355,1.190000057220459
1743758163.183,1.2599999904632568,0.07000000029802322,1.2599999904632568
1743758163.256,1.5399999618530273,-0.07000000029802322,1.2599999904632568
1743758163.256,0.9800000190734863,-0.7699999809265137,0.8400000333786011
1743758163.256,0.6299999952316284,-0.9800000190734863,0.699999988079071
1743758163.256,0.699999988079071,-0.2800000011920929,0.2800000011920929
1743758163.329,0.42000001668930054,-0.07000000029802322,-0.3499999940395355
1743758163.329,0.5600000023841858,-0.2800000011920929,-0.6299999952316284
1743758163.329,0.7699999809265137,-1.1200000047683716,-0.5600000023841858
1743758163.329,0.9800000190734863,-1.1200000047683716,-0.7699999809265137
1743758163.402,1.2599999904632568,-0.699999988079071,-0.9100000262260437
1743758163.402,1.399999976158142,-0.8400000333786011,-0.21000000834465027
1743758163.402,0.9800000190734863,-0.2800000011920929,-0.07000000029802322
1743758163.402,1.190000057220459,0.42000001668930054,-0.14000000059604645
1743758163.475,1.3300000429153442,0.2800000011920929,0.07000000029802322
1743758163.475,2.0999999046325684,-0.9800000190734863,0.6299999952316284
1743758163.475,1.8200000524520874,-1.4700000286102295,0.21000000834465027
1743758163.475,1.75,-1.190000057220459,-0.14000000059604645
1743758163.548,1.6100000143051147,-0.49000000953674316,0.42000001668930054
1743758163.548,0.9800000190734863,-0.21000000834465027,0.6299999952316284
1743758163.548,0.699999988079071,-0.14000000059604645,0.3499999940395355
1743758163.548,0.2800000011920929,0,0.07000000029802322
1743758163.621,0.21000000834465027,-0.14000000059604645,-0.21000000834465027
1743758163.621,-0.7699999809265137,-0.21000000834465027,-0.21000000834465027
1743758163.621,-0.5600000023841858,0.07000000029802322,-0.7699999809265137
1743758163.621,-0.21000000834465027,-0.14000000059604645,-0.5600000023841858
1743758163.694,-0.21000000834465027,-0.9100000262260437,0.42000001668930054
1743758163.694,-0.699999988079071,-0.5600000023841858,0.49000000953674316
1743758163.694,-0.14000000059604645,0.3499999940395355,0.3499999940395355
1743758163.694,1.0499999523162842,0.07000000029802322,0.9800000190734863
1743758163.767,0.7699999809265137,-0.9100000262260437,1.0499999523162842
1743758163.767,0.699999988079071,-1.4700000286102295,-0.07000000029802322
1743758163.767,1.0499999523162842,-1.6100000143051147,0.3499999940395355
1743758163.767,0.7699999809265137,-1.0499999523162842,0.8400000333786011
1743758163.84,0.699999988079071,-0.07000000029802322,0.49000000953674316
1743758163.84,0.14000000059604645,0.3499999940395355,0
1743758163.84,0.14000000059604645,-0.07000000029802322,0.42000001668930054
1743758163.84,0,-0.42000001668930054,0.21000000834465027
1743758163.913,-0.14000000059604645,-0.7699999809265137,0.14000000059604645
1743758163.913,-0.42000001668930054,-0.699999988079071,0.07000000029802322
1743758163.913,0.3499999940395355,-0.5600000023841858,-0.07000000029802322
1743758163.913,0.699999988079071,-0.699999988079071,-0.21000000834465027
1743758163.986,-0.21000000834465027,-0.9100000262260437,0.3499999940395355
1743758163.986,0.14000000059604645,-0.2800000011920929,0.8400000333786011
1743758163.986,0.6299999952316284,-0.21000000834465027,0.7699999809265137
1743758163.986,0.5600000023841858,-0.8400000333786011,0.7699999809265137
1743758164.059,0.8400000333786011,-0.9100000262260437,0.9800000190734863
1743758164.059,1.75,-0.07000000029802322,1.1200000047683716
1743758164.059,1.3300000429153442,0.49000000953674316,0.9100000262260437
1743758164.059,1.2599999904632568,-0.21000000834465027,0.5600000023841858
1743758164.132,1.4700000286102295,-0.699999988079071,0.9100000262260437
1743758164.132,1.3300000429153442,-0.21000000834465027,1.1200000047683716
1743758164.132,1.4700000286102295,0.699999988079071,0.699999988079071
1743758164.132,1.0499999523162842,0.14000000059604645,0.49000000953674316
1743758164.205,0.699999988079071,-1.2599999904632568,-0.3499999940395355
1743758164.205,0.2800000011920929,-1.4700000286102295,-0.8400000333786011
1743758164.205,1.6800000667572021,-0.9800000190734863,-1.0499999523162842
1743758164.205,2.7300000190734863,-1.9600000381469727,-1.0499999523162842
1743758164.278,1.9600000381469727,-2.940000057220459,-1.5399999618530273
1743758164.278,1.1200000047683716,-2.0999999046325684,-1.0499999523162842
1743758164.278,1.6100000143051147,-0.42000001668930054,-0.8400000333786011
1743758164.278,1.6800000667572021,0.2800000011920929,-0.9100000262260437
1743758164.351,0.14000000059604645,-0.6299999952316284,-1.6100000143051147
1743758164.351,-1.6100000143051147,-0.699999988079071,-2.1700000762939453
1743758164.351,-2.240000009536743,0.699999988079071,-2.380000114440918
1743758164.351,-1.8899999856948853,1.399999976158142,-2.940000057220459
1743758164.424,-3.2200000286102295,1.3300000429153442,-4.059999942779541
1743758164.424,-3.640000104904175,0.9800000190734863,-5.599999904632568
1743758164.424,-3.3600001335144043,0.9100000262260437,-6.440000057220459
1743758164.424,-3.3600001335144043,1.399999976158142,-7.28000020980835
1743758164.497,-4.130000114440918,1.190000057220459,-8.890000343322754
1743758164.497,-2.309999942779541,-0.9800000190734863,-13.300000190734863
1743758164.497,1.8200000524520874,-3.3600001335144043,-16.8700008392334
1743758164.497,0.699999988079071,-3.640000104904175,-14.350000381469727
1743758164.57,-2.309999942779541,1.6100000143051147,-11.829999923706055
1743758164.57,-1.2599999904632568,13.510000228881836,-11.760000228881836
1743758164.57,0.21000000834465027,22.329999923706055,-9.029999732971191
1743758164.57,-1.6800000667572021,23.309999465942383,-4.199999809265137
1743758164.643,-4.760000228881836,24.290000915527344,-0.9100000262260437
1743758164.643,-8.329999923706055,29.75,-0.5600000023841858
1743758164.643,-11.6899995803833,35.560001373291016,-1.75
1743758164.643,-14.489999771118164,35.97999954223633,-2.940000057220459
1743758164.716,-20.15999984741211,34.22999954223633,-3.2899999618530273
1743758164.716,-25.270000457763672,33.7400016784668,-3.8499999046325684
1743758164.716,-31.920000076293945,36.04999923706055,-5.179999828338623
1743758164.716,-38.5,37.310001373291016,-6.789999961853027
1743758164.789,-42.209999084472656,33.95000076293945,-9.029999732971191
1743758164.789,-42.560001373291016,26.950000762939453,-15.329999923706055
1743758164.789,-37.65999984741211,16.65999984741211,-23.799999237060547
1743758164.789,-36.400001525878906,1.0499999523162842,-29.260000228881836
1743758164.862,-36.33000183105469,-15.190000534057617,-30.8700008392334
1743758164.862,-23.799999237060547,-21.06999969482422,-33.459999084472656
1743758164.862,-10.989999771118164,-16.729999542236328,-32.689998626708984
1743758164.862,-3.1500000953674316,-11.760000228881836,-27.860000610351562
1743758164.935,8.329999923706055,-8.890000343322754,-22.610000610351562
1743758164.935,17.43000030517578,-5.740000247955322,-17.5
1743758164.935,27.93000030517578,-0.8400000333786011,-12.25
1743758164.935,39.7599983215332,1.6800000667572021,-8.609999656677246
1743758165.008,46.060001373291016,0.3499999940395355,-4.96999979019165
1743758165.008,47.529998779296875,-0.9100000262260437,-0.8400000333786011
1743758165.008,47.67000198364258,0.6299999952316284,3.7100000381469727
1743758165.008,50.81999969482422,6.019999980926514,4.619999885559082
1743758165.081,53.060001373291016,6.720000267028809,3.9200000762939453
1743758165.081,45.92000198364258,0.07000000029802322,4.829999923706055
1743758165.081,34.86000061035156,-3.009999990463257,6.860000133514404
1743758165.081,33.529998779296875,3.3600001335144043,9.3100004196167
1743758165.154,39.900001525878906,10.220000267028809,12.109999656677246
1743758165.154,41.369998931884766,6.019999980926514,17.219999313354492
1743758165.154,35.560001373291016,-3.990000009536743,22.260000228881836
1743758165.154,29.610000610351562,-8.960000038146973,27.3700008392334
1743758165.227,25.760000228881836,-9.170000076293945,33.459999084472656
1743758165.227,19.18000030517578,-7,39.20000076293945
1743758165.227,7.420000076293945,-2.450000047683716,45.43000030517578
1743758165.227,-0.699999988079071,3.430000066757202,49.77000045776367
1743758165.3,2.240000009536743,5.949999809265137,47.040000915527344
1743758165.3,3.1500000953674316,-1.1200000047683716,40.95000076293945
1743758165.3,-2.0999999046325684,-22.399999618530273,38.43000030517578
1743758165.3,-10.710000038146973,-43.540000915527344,40.040000915527344
1743758165.373,-13.720000267028809,-45.36000061035156,41.439998626708984
1743758165.373,-10.640000343322754,-33.25,40.25
1743758165.373,-9.730000495910645,-25.40999984741211,38.5
1743758165.373,-12.739999771118164,-27.440000534057617,37.65999984741211
1743758165.446,-13.579999923706055,-32.619998931884766,35.84000015258789
1743758165.446,-13.020000457763672,-35.209999084472656,34.93000030517578
1743758165.446,-14.5600004196167,-34.790000915527344,32.900001525878906
1743758165.446,-11.6899995803833,-31.219999313354492,28.979999542236328
1743758165.519,-4.690000057220459,-25.1299991607666,24.639999389648438
1743758165.519,-1.399999976158142,-19.18000030517578,19.530000686645508
1743758165.519,4.409999847412109,-13.15999984741211,11.899999618530273
1743758165.519,11.130000114440918,-9.65999984741211,6.019999980926514
1743758165.592,14.90999984741211,-11.199999809265137,2.5899999141693115
1743758165.592,18.969999313354492,-17.079999923706055,1.8899999856948853
1743758165.592,21.350000381469727,-23.940000534057617,3.7100000381469727
1743758165.592,24.290000915527344,-22.1200008392334,4.619999885559082
1743758165.665,31.219999313354492,-13.09000015258789,5.179999828338623
1743758165.665,35.70000076293945,-5.039999961853027,6.159999847412109
1743758165.665,35.560001373291016,-0.699999988079071,6.860000133514404
1743758165.665,33.599998474121094,2.450000047683716,7.559999942779541
1743758165.738,28.84000015258789,5.599999904632568,8.399999618530273
1743758165.738,23.3799991607666,10.640000343322754,6.440000057220459
1743758165.738,19.18000030517578,17.850000381469727,1.399999976158142
1743758165.738,15.119999885559082,24.71000099182129,-4.269999980926514
1743758165.811,10.779999732971191,27.09000015258789,-9.65999984741211
1743758165.811,5.320000171661377,23.170000076293945,-14.90999984741211
1743758165.811,-1.5399999618530273,17.149999618530273,-20.3700008392334
1743758165.811,-10.079999923706055,12.390000343322754,-25.6200008392334
1743758165.884,-20.3700008392334,10.5,-27.790000915527344
1743758165.884,-30.59000015258789,12.039999961853027,-27.299999237060547
1743758165.884,-38.92000198364258,16.170000076293945,-26.600000381469727
1743758165.884,-42.97999954223633,21.700000762939453,-26.18000030517578
1743758165.957,-41.15999984741211,27.020000457763672,-29.81999969482422
1743758165.957,-35.84000015258789,31.639999389648438,-35.209999084472656
1743758165.957,-29.96000099182129,33.599998474121094,-40.18000030517578
1743758165.957,-23.170000076293945,30.100000381469727,-43.189998626708984
1743758166.03,-16.239999771118164,22.399999618530273,-44.939998626708984
1743758166.03,-7.840000152587891,12.8100004196167,-46.060001373291016
1743758166.03,1.6800000667572021,3.009999990463257,-44.869998931884766
1743758166.03,10.5,-7,-41.439998626708984
1743758166.103,17.290000915527344,-17.149999618530273,-38.9900016784668
1743758166.103,23.520000457763672,-23.030000686645508,-36.119998931884766
1743758166.103,32.83000183105469,-21.90999984741211,-30.65999984741211
1743758166.103,41.02000045776367,-18.899999618530273,-24.850000381469727
1743758166.176,43.189998626708984,-15.75,-20.299999237060547
1743758166.176,44.72999954223633,-12.390000343322754,-17.989999771118164
1743758166.176,46.27000045776367,-9.730000495910645,-17.639999389648438
1743758166.176,43.189998626708984,-10.5,-17.079999923706055
1743758166.249,36.959999084472656,-12.670000076293945,-15.960000038146973
1743758166.249,30.239999771118164,-13.579999923706055,-13.15999984741211
1743758166.249,23.3799991607666,-12.180000305175781,-10.149999618530273
1743758166.249,17.639999389648438,-7.630000114440918,-7.490000247955322
1743758166.322,11.899999618530273,0.14000000059604645,-6.019999980926514
1743758166.322,8.470000267028809,8.680000305175781,-4.96999979019165
1743758166.322,6.159999847412109,12.670000076293945,-3.3600001335144043
1743758166.322,1.8200000524520874,12.25,-2.5899999141693115
1743758166.395,-0.7699999809265137,10.710000038146973,-1.5399999618530273
1743758166.395,-1.399999976158142,8.539999961853027,0
1743758166.395,-1.75,5.880000114440918,2.450000047683716
1743758166.395,-1.399999976158142,4.480000019073486,6.860000133514404
1743758166.468,0.14000000059604645,5.740000247955322,12.949999809265137
1743758166.468,3.430000066757202,9.65999984741211,19.389999389648438
1743758166.468,8.329999923706055,13.300000190734863,25.6200008392334
1743758166.468,12.319999694824219,10.289999961853027,32.20000076293945
1743758166.541,5.740000247955322,1.399999976158142,39.47999954223633
1743758166.541,-11.619999885559082,-6.440000057220459,51.380001068115234
1743758166.541,-24.360000610351562,-3.0799999237060547,60.47999954223633
1743758166.541,-26.25,15.119999885559082,63.13999938964844
1743758166.614,-25.690000534057617,38.36000061035156,60.619998931884766
1743758166.614,-27.15999984741211,48.86000061035156,57.26000213623047
1743758166.614,-32.20000076293945,50.959999084472656,54.040000915527344
1743758166.614,-35.06999969482422,52.5,52.5
1743758166.687,-33.040000915527344,53.20000076293945,50.470001220703125
1743758166.687,-30.65999984741211,50.88999938964844,48.93000030517578
1743758166.687,-28.280000686645508,46.970001220703125,46.27000045776367
1743758166.687,-23.729999542236328,42.349998474121094,43.68000030517578
1743758166.76,-18.270000457763672,37.59000015258789,42.97999954223633
1743758166.76,-13.300000190734863,34.22999954223633,43.75
1743758166.76,-7.210000038146973,31.989999771118164,45.63999938964844
1743758166.76,1.190000057220459,29.81999969482422,48.439998626708984
1743758166.833,9.239999771118164,14.630000114440918,56
1743758166.833,13.789999961853027,-6.369999885559082,60.900001525878906
1743758166.833,14.489999771118164,-20.229999542236328,57.540000915527344
1743758166.833,16.309999465942383,-21.770000457763672,52.9900016784668
1743758166.906,21.700000762939453,-14.980000495910645,52.849998474121094
1743758166.906,24.56999969482422,-9.9399995803833,55.86000061035156
1743758166.906,22.540000915527344,-12.600000381469727,59.849998474121094
1743758166.906,15.050000190734863,-15.609999656677246,64.12000274658203
1743758166.979,5.460000038146973,-14.84000015258789,63.349998474121094
1743758166.979,5.389999866485596,-15.399999618530273,62.58000183105469
1743758166.979,7.210000038146973,-20.440000534057617,64.33000183105469
1743758166.979,6.440000057220459,-29.329999923706055,64.12000274658203
1743758167.052,10.079999923706055,-37.59000015258789,60.970001220703125
1743758167.052,13.649999618530273,-40.880001068115234,56.209999084472656
1743758167.052,16.450000762939453,-41.22999954223633,51.72999954223633
1743758167.052,18.829999923706055,-41.650001525878906,47.25
1743758167.125,19.670000076293945,-43.119998931884766,42.97999954223633
1743758167.125,20.510000228881836,-42.97999954223633,39.54999923706055
1743758167.125,22.329999923706055,-40.95000076293945,36.61000061035156
1743758167.125,23.450000762939453,-36.68000030517578,30.940000534057617
1743758167.198,24.71000099182129,-33.040000915527344,23.520000457763672
1743758167.198,24.850000381469727,-30.380001068115234,18.760000228881836
1743758167.198,22.610000610351562,-25.829999923706055,15.329999923706055
1743758167.198,22.610000610351562,-16.729999542236328,11.6899995803833
1743758167.271,24.290000915527344,-6.300000190734863,8.260000228881836
1743758167.271,31.5,2.450000047683716,2.799999952316284
1743758167.271,42.42000198364258,2.309999942779541,-4.130000114440918
1743758167.271,40.040000915527344,-5.53000020980835,-12.460000038146973
1743758167.344,23.309999465942383,-15.75,-14.420000076293945
1743758167.344,6.789999961853027,-22.329999923706055,-13.649999618530273
1743758167.344,-0.07000000029802322,-22.399999618530273,-9.59000015258789
1743758167.344,-2.450000047683716,-16.940000534057617,-2.5199999809265137
1743758167.417,-11.550000190734863,-9.029999732971191,2.940000057220459
1743758167.417,-28.489999771118164,1.9600000381469727,8.050000190734863
1743758167.417,-39.20000076293945,19.110000610351562,11.899999618530273
1743758167.417,-42.560001373291016,40.11000061035156,14.489999771118164
1743758167.49,-42.630001068115234,57.33000183105469,15.470000267028809
1743758167.49,-36.2599983215332,70,13.440000534057617
1743758167.49,-26.389999389648438,78.75,4.760000228881836
1743758167.49,-20.860000610351562,79.87000274658203,-9.3100004196167
1743758167.563,-16.729999542236328,75.11000061035156,-24.149999618530273
1743758167.563,-12.319999694824219,63.13999938964844,-34.86000061035156
